Trialnum, Trialtype, Trial_Valid, Trial_Paused, Congruency_Type, Spatialoffset, Distance Biasing, Angle Biasing, Audio_Stim, Visual_Stim, Responsetime, Correct_Bias_Direction, Same_Location_Judgment, Temporaloffset, Simultaneity_Judgment, visual_x, visual_y, visual_z, audio_x, audio_y, audio_z, response_x, response_y, response_z, baseline_spatial_error, baseline_temporal_same
1,spatial,True,False,ao-congruent,0,0,1.872521,impact_large_metal (UnityEngine.GameObject),impact_large_metal (UnityEngine.GameObject),3.4801504,1,1,0,null,-0.01343665,1.167197,3.181269,-0.01343665,1.117197,3.181269,-0.007447505,0.9739143,2.877238,1.872521,null,
2,spatial,True,False,ao-incongruent,4,0,-3.384834,impact_large_metal (UnityEngine.GameObject),slide_large_wood (UnityEngine.GameObject),2.6213568,0,0,0,null,-0.01626268,1.163922,3.166698,0.1930067,1.114922,3.15939,0.3164086,1.053992,2.823686,null,null,
3,spatial,True,False,ao-congruent,16,0,3.872015,impact_large_wood (UnityEngine.GameObject),impact_large_wood (UnityEngine.GameObject),2.2437746,1,0,0,null,-0.01996723,1.16325,3.166631,-0.8468795,1.11325,3.050416,-0.5904032,1.063226,2.79263,null,null,
4,spatial,True,False,ao-congruent,8,0,1.966525,impact_large_wood (UnityEngine.GameObject),impact_large_wood (UnityEngine.GameObject),3.2891817,1,0,0,null,-0.0160726,1.161077,3.169231,0.4014467,1.111078,3.140035,0.3492551,1.025196,2.829311,null,null,
5,spatial,True,False,ao-incongruent,8,0,-1.981594,slide_large_wood (UnityEngine.GameObject),impact_large_metal (UnityEngine.GameObject),2.8089889,0,0,0,null,-0.01595395,1.16061,3.168178,0.4015654,1.11061,3.138982,0.3669512,1.042824,2.822288,null,null,
6,spatial,True,False,ao-incongruent,16,0,6.884472,impact_large_metal (UnityEngine.GameObject),slide_large_wood (UnityEngine.GameObject),3.0326288,1,0,0,null,-0.01632618,1.158948,3.168742,0.8105861,1.109949,3.052527,0.3876947,1.034455,2.822863,null,null,
7,spatial,True,False,ao-congruent,0,0,-2.194905,impact_large_wood (UnityEngine.GameObject),impact_large_wood (UnityEngine.GameObject),4.8775615,0,1,0,null,-0.01654675,1.158268,3.170226,-0.01654675,1.108268,3.170226,-0.06414925,1.052129,2.848143,-2.194905,null,
8,spatial,True,False,ao-congruent,12,0,4.975632,impact_large_wood (UnityEngine.GameObject),impact_large_wood (UnityEngine.GameObject),2.0455318,1,0,0,null,-0.01777289,1.157867,3.171209,-0.641508,1.107867,3.105652,-0.3377592,1.020242,2.831911,null,null,
9,spatial,True,False,ao-congruent,12,0,3.900233,impact_large_metal (UnityEngine.GameObject),impact_large_metal (UnityEngine.GameObject),2.3552639,1,0,0,null,-0.01533669,1.157706,3.17105,0.6083984,1.107706,3.105492,0.3703727,0.9932274,2.837009,null,null,
10,spatial,True,False,ao-congruent,8,0,8.25576,impact_large_wood (UnityEngine.GameObject),impact_large_wood (UnityEngine.GameObject),2.3213145,1,1,0,null,-0.01608535,1.15647,3.171913,0.401434,1.10647,3.142717,-0.06148684,1.09908,2.834153,null,null,
11,spatial,True,False,ao-incongruent,16,0,1.924883,slide_large_wood (UnityEngine.GameObject),impact_large_metal (UnityEngine.GameObject),2.4662283,1,0,0,null,-0.01648063,1.156304,3.17216,0.8104317,1.106304,3.055945,0.7053539,1.01488,2.774335,null,null,
12,spatial,True,False,ao-congruent,4,0,-3.336187,impact_large_metal (UnityEngine.GameObject),impact_large_metal (UnityEngine.GameObject),2.7997962,0,0,0,null,-0.0153294,1.155988,3.171676,-0.2245988,1.105989,3.164368,-0.3390608,1.06129,2.819336,null,null,
13,spatial,True,False,ao-incongruent,16,0,6.070538,slide_large_wood (UnityEngine.GameObject),impact_large_metal (UnityEngine.GameObject),2.1663925,1,0,0,null,-0.0152705,1.156413,3.170695,0.8116418,1.106413,3.05448,0.433603,1.007306,2.826752,null,null,
14,spatial,True,False,ao-congruent,12,0,2.962599,impact_large_metal (UnityEngine.GameObject),impact_large_metal (UnityEngine.GameObject),2.4094087,1,0,0,null,-0.01413064,1.15641,3.169619,0.6096044,1.106411,3.104062,0.4311786,1.015495,2.824498,null,null,
15,spatial,True,False,ao-congruent,8,0,-1.975561,impact_large_metal (UnityEngine.GameObject),impact_large_metal (UnityEngine.GameObject),2.0774429,0,0,0,null,-0.0156438,1.155882,3.171464,-0.4331631,1.105882,3.142268,-0.3938856,1.026691,2.824641,null,null,
16,spatial,True,False,ao-congruent,0,0,7.182203,slide_large_wood (UnityEngine.GameObject),slide_large_wood (UnityEngine.GameObject),2.6880763,1,0,0,null,-0.0142335,1.155122,3.170543,-0.0142335,1.106122,3.170543,0.351588,1.039401,2.824781,7.182203,null,
17,spatial,True,False,ao-congruent,8,0,-2.030087,impact_large_metal (UnityEngine.GameObject),impact_large_metal (UnityEngine.GameObject),1.9550716,0,0,0,null,-0.01526996,1.155229,3.171627,-0.4327893,1.105229,3.142431,-0.4126173,1.032683,2.821049,null,null,
18,spatial,True,False,ao-incongruent,12,0,-3.287059,slide_large_metal (UnityEngine.GameObject),impact_large_wood (UnityEngine.GameObject),2.2876799,0,0,0,null,-0.01602638,1.155291,3.171281,-0.6397614,1.105291,3.105724,-0.7163797,1.0164,2.770666,null,null,
19,spatial,True,False,ao-congruent,16,0,6.609663,impact_large_wood (UnityEngine.GameObject),impact_large_wood (UnityEngine.GameObject),2.3322054,1,0,0,null,-0.01087498,1.156025,3.168364,0.8160373,1.106025,3.052149,0.4079729,1.017074,2.826216,null,null,
20,spatial,True,False,ao-congruent,0,0,-7.098433,slide_large_metal (UnityEngine.GameObject),slide_large_metal (UnityEngine.GameObject),2.0890819,0,0,0,null,-0.01099132,1.154338,3.170807,-0.01099132,1.105338,3.170807,-0.3716391,1.008973,2.832121,-7.098433,null,
21,spatial,True,False,ao-incongruent,4,0,-4.316383,slide_large_metal (UnityEngine.GameObject),impact_large_wood (UnityEngine.GameObject),2.1752681,0,0,0,null,-0.01104077,1.155275,3.171124,-0.2203102,1.105275,3.163816,-0.4018449,1.015477,2.827289,null,null,
22,spatial,True,False,ao-incongruent,12,0,3.227799,slide_large_wood (UnityEngine.GameObject),impact_large_metal (UnityEngine.GameObject),2.1646032,1,0,0,null,-0.01068331,1.155528,3.170597,0.6130518,1.105528,3.10504,0.4165692,1.007576,2.828283,null,null,
23,spatial,True,False,ao-congruent,4,0,10.40552,slide_large_metal (UnityEngine.GameObject),slide_large_metal (UnityEngine.GameObject),2.2114534,1,0,0,null,-0.01024609,1.154515,3.170761,0.1990233,1.105515,3.163453,-0.3619772,1.023021,2.828774,null,null,
24,spatial,True,False,ao-congruent,16,0,1.876906,slide_large_metal (UnityEngine.GameObject),slide_large_metal (UnityEngine.GameObject),2.0880062,1,0,0,null,-0.009756559,1.154215,3.170763,-0.8366688,1.105216,3.054548,-0.7387201,0.9958895,2.770622,null,null,
25,spatial,True,False,ao-incongruent,8,0,1.880968,slide_large_wood (UnityEngine.GameObject),impact_large_metal (UnityEngine.GameObject),2.2429834,1,0,0,null,-0.010481,1.15536,3.170316,-0.4280003,1.10536,3.141121,-0.3588127,0.9400811,2.854234,null,null,
26,spatial,True,False,ao-incongruent,4,0,-3.4604,slide_large_metal (UnityEngine.GameObject),impact_large_wood (UnityEngine.GameObject),1.9980847,0,0,0,null,-0.01160923,1.155255,3.170297,-0.2208786,1.105255,3.16299,-0.3549564,0.9663132,2.846642,null,null,
27,spatial,True,False,ao-incongruent,16,0,-1.873671,slide_large_metal (UnityEngine.GameObject),impact_large_wood (UnityEngine.GameObject),2.1766,0,0,0,null,-0.0112302,1.155044,3.169806,-0.8381425,1.105044,3.053591,-0.7673916,1.007256,2.758676,null,null,
28,spatial,True,False,ao-incongruent,12,0,-6.591599,slide_large_metal (UnityEngine.GameObject),impact_large_wood (UnityEngine.GameObject),2.4882784,0,0,0,null,-0.01205652,1.155008,3.170603,0.6116785,1.105008,3.105046,0.8759394,1.03802,2.717291,null,null,
29,spatial,True,False,ao-incongruent,0,0,-5.414935,impact_large_metal (UnityEngine.GameObject),slide_large_wood (UnityEngine.GameObject),2.5994418,0,0,0,null,-0.01339974,1.153915,3.170101,-0.01339974,1.104915,3.170101,-0.2804667,1.000939,2.843191,-5.414935,null,
30,spatial,True,False,ao-incongruent,4,0,3.022973,slide_large_wood (UnityEngine.GameObject),impact_large_metal (UnityEngine.GameObject),2.6541729,1,1,0,null,-0.01241762,1.155042,3.169567,-0.221687,1.105042,3.162259,-0.07694242,1.031146,2.853297,null,null,
31,spatial,True,False,ao-congruent,4,0,-3.283663,impact_large_wood (UnityEngine.GameObject),impact_large_wood (UnityEngine.GameObject),2.120066,0,0,0,null,-0.01368581,1.154811,3.16994,-0.2229552,1.104811,3.162632,-0.3440729,0.9802093,2.843457,null,null,
32,spatial,True,False,ao-incongruent,8,0,2.33003,impact_large_metal (UnityEngine.GameObject),slide_large_wood (UnityEngine.GameObject),1.9108237,1,0,0,null,-0.01195585,1.154213,3.169542,-0.4294752,1.105213,3.140347,-0.3205499,1.022727,2.832786,null,null,
33,spatial,True,False,ao-incongruent,12,0,4.582275,impact_large_metal (UnityEngine.GameObject),slide_large_wood (UnityEngine.GameObject),2.4990957,1,0,0,null,-0.01300289,1.153815,3.170262,-0.6367379,1.104815,3.104705,-0.3561598,1.017765,2.83092,null,null,
34,spatial,True,False,ao-incongruent,4,0,10.75856,impact_large_metal (UnityEngine.GameObject),slide_large_wood (UnityEngine.GameObject),2.2422732,1,0,0,null,-0.01320309,1.153957,3.169921,0.1960663,1.104957,3.162613,-0.3842696,1.012229,2.829937,null,null,
35,spatial,True,False,ao-congruent,4,0,-3.468425,slide_large_wood (UnityEngine.GameObject),slide_large_wood (UnityEngine.GameObject),1.9996113,0,0,0,null,-0.01396827,1.153677,3.170537,-0.2232377,1.104678,3.163229,-0.3560237,0.9804809,2.842243,null,null,
36,spatial,True,False,ao-incongruent,8,0,-2.360574,slide_large_wood (UnityEngine.GameObject),impact_large_metal (UnityEngine.GameObject),1.9321962,0,0,0,null,-0.01417201,1.154397,3.170879,-0.4316913,1.104397,3.141684,-0.4746382,0.9458542,2.841516,null,null,
37,spatial,True,False,ao-congruent,16,0,7.299041,impact_large_metal (UnityEngine.GameObject),impact_large_metal (UnityEngine.GameObject),2.0980159,1,0,0,null,-0.01396627,1.153865,3.171237,0.812946,1.103865,3.055022,0.3679037,0.9559596,2.848548,null,null,
38,spatial,True,False,ao-incongruent,16,0,1.86141,impact_large_metal (UnityEngine.GameObject),slide_large_wood (UnityEngine.GameObject),2.1325784,1,0,0,null,-0.01438769,1.152542,3.171871,-0.8413,1.103542,3.055656,-0.7484931,0.9915038,2.769155,null,null,
39,spatial,True,False,ao-congruent,16,0,5.753535,impact_large_metal (UnityEngine.GameObject),impact_large_metal (UnityEngine.GameObject),2.4652352,1,0,0,null,-0.0134566,1.154198,3.171523,0.8134557,1.104198,3.055308,0.453181,0.9755417,2.834534,null,null,
40,spatial,True,False,ao-congruent,4,0,9.241758,impact_large_wood (UnityEngine.GameObject),impact_large_wood (UnityEngine.GameObject),2.4214725,1,0,0,null,-0.01343678,1.154021,3.171114,0.1958326,1.104021,3.163807,-0.3044043,0.975467,2.848651,null,null,
41,spatial,True,False,ao-incongruent,16,0,6.581566,impact_large_metal (UnityEngine.GameObject),slide_large_wood (UnityEngine.GameObject),2.0095557,1,0,0,null,-0.01398289,1.153304,3.171093,0.8129294,1.104304,3.054878,0.4063634,1.019451,2.825647,null,null,
42,spatial,True,False,ao-congruent,4,0,4.917013,impact_large_metal (UnityEngine.GameObject),impact_large_metal (UnityEngine.GameObject),2.241817,1,1,0,null,-0.01425793,1.15368,3.171901,0.1950115,1.10368,3.164594,-0.06526273,1.008675,2.86122,null,null,
43,spatial,True,False,ao-congruent,4,0,4.943319,impact_large_wood (UnityEngine.GameObject),impact_large_wood (UnityEngine.GameObject),2.1181599,1,1,0,null,-0.01347666,1.153637,3.171626,0.1957927,1.103637,3.164318,-0.06801125,0.9690557,2.872977,null,null,
44,spatial,True,False,ao-incongruent,16,0,-4.178092,slide_large_wood (UnityEngine.GameObject),impact_large_metal (UnityEngine.GameObject),2.2657253,0,0,0,null,-0.01473278,1.153192,3.172174,0.8121795,1.103192,3.055959,0.9289527,1.000541,2.713655,null,null,
45,spatial,True,False,ao-congruent,8,0,-1.969707,slide_large_metal (UnityEngine.GameObject),slide_large_metal (UnityEngine.GameObject),2.1865815,0,0,0,null,-0.01460399,1.151987,3.172699,-0.4321233,1.102987,3.143503,-0.4158768,0.995831,2.831919,null,null,
46,spatial,True,False,ao-incongruent,16,0,1.862671,slide_large_metal (UnityEngine.GameObject),impact_large_wood (UnityEngine.GameObject),2.186101,1,0,0,null,-0.01522588,1.153244,3.172608,-0.8421382,1.103244,3.056393,-0.7508336,0.9918815,2.768354,null,null,
47,spatial,True,False,ao-incongruent,8,0,7.206119,impact_large_metal (UnityEngine.GameObject),slide_large_wood (UnityEngine.GameObject),1.9899459,1,1,0,null,-0.01496859,1.152034,3.172907,0.4025508,1.103034,3.143711,-0.007536927,0.9487994,2.884848,null,null,
48,spatial,True,False,ao-congruent,8,0,6.212997,impact_large_metal (UnityEngine.GameObject),impact_large_metal (UnityEngine.GameObject),1.9112512,1,1,0,null,-0.01450094,1.153052,3.172609,-0.4320203,1.103052,3.143413,-0.07559185,0.9774044,2.869727,null,null,
49,spatial,True,False,ao-incongruent,8,0,-2.753637,slide_large_wood (UnityEngine.GameObject),impact_large_metal (UnityEngine.GameObject),3.1426736,0,0,0,null,-0.01434206,1.153812,3.171186,0.4031773,1.103812,3.14199,0.4701211,1.008368,2.822972,null,null,
50,spatial,True,False,ao-congruent,16,0,13.81406,impact_large_wood (UnityEngine.GameObject),impact_large_wood (UnityEngine.GameObject),2.0666286,1,1,0,null,-0.01740968,1.153759,3.171001,0.8095026,1.103759,3.054786,0.01243681,1.014205,2.864535,null,null,
51,spatial,True,False,ao-incongruent,4,0,4.118894,slide_large_wood (UnityEngine.GameObject),impact_large_metal (UnityEngine.GameObject),1.8006374,1,1,0,null,-0.01731966,1.153246,3.17117,0.1919497,1.103246,3.163862,-0.01972272,1.047942,2.85362,null,null,
52,spatial,True,False,ao-incongruent,12,0,10.64684,impact_large_metal (UnityEngine.GameObject),slide_large_wood (UnityEngine.GameObject),1.6544392,1,1,0,null,-0.01801784,1.152526,3.171725,0.6057172,1.103526,3.106167,-0.006975851,1.009521,2.866482,null,null,
53,spatial,True,False,ao-congruent,16,0,1.999391,slide_large_wood (UnityEngine.GameObject),slide_large_wood (UnityEngine.GameObject),2.5306501,1,0,0,null,-0.01975401,1.152298,3.172027,-0.8466663,1.103298,3.055812,-0.7321709,1.016074,2.766165,null,null,
54,spatial,True,False,ao-incongruent,8,0,-2.365047,slide_large_wood (UnityEngine.GameObject),impact_large_metal (UnityEngine.GameObject),2.799636,0,0,0,null,-0.01877248,1.153613,3.172459,0.3987468,1.103613,3.143264,0.4325234,1.016004,2.824216,null,null,
55,spatial,True,False,ao-congruent,16,0,-2.93178,slide_large_wood (UnityEngine.GameObject),slide_large_wood (UnityEngine.GameObject),2.566381,0,0,0,null,-0.01899827,1.152485,3.171623,0.807914,1.103485,3.055408,0.8519508,0.9921609,2.738753,null,null,
56,spatial,True,False,ao-incongruent,16,0,-1.78597,slide_large_wood (UnityEngine.GameObject),impact_large_metal (UnityEngine.GameObject),2.5211347,0,0,0,null,-0.0192373,1.154417,3.169201,-0.8461496,1.104417,3.052986,-0.7725967,0.9635515,2.770945,null,null,
57,spatial,True,False,ao-congruent,16,0,5.919007,slide_large_metal (UnityEngine.GameObject),slide_large_metal (UnityEngine.GameObject),2.3228928,1,0,0,null,-0.0195471,1.153657,3.169531,-0.8464594,1.104657,3.053316,-0.4724061,1.06154,2.806635,null,null,
58,spatial,True,False,ao-incongruent,16,0,6.999585,slide_large_metal (UnityEngine.GameObject),impact_large_wood (UnityEngine.GameObject),2.8788186,1,0,0,null,-0.02055777,1.154151,3.170916,-0.84747,1.104151,3.054701,-0.4145105,0.9935106,2.832753,null,null,
59,spatial,True,False,ao-incongruent,4,0,2.653948,slide_large_metal (UnityEngine.GameObject),impact_large_wood (UnityEngine.GameObject),2.2551949,1,1,0,null,-0.02072357,1.154406,3.171298,0.1885458,1.104406,3.16399,0.06693546,0.9637961,2.874666,null,null,
60,spatial,True,False,ao-congruent,12,0,2.506631,slide_large_wood (UnityEngine.GameObject),slide_large_wood (UnityEngine.GameObject),2.2557436,1,0,0,null,-0.02112931,1.154173,3.170937,0.6026058,1.105173,3.10538,0.4573817,1.011277,2.823296,null,null,
61,spatial,True,False,ao-incongruent,0,0,1.873775,slide_large_wood (UnityEngine.GameObject),impact_large_metal (UnityEngine.GameObject),2.210394,1,1,0,null,-0.02205016,1.154333,3.171557,-0.02205016,1.104333,3.171557,0.01997305,0.9298969,2.889396,1.873775,null,
62,spatial,True,False,ao-congruent,4,0,4.343388,slide_large_metal (UnityEngine.GameObject),slide_large_metal (UnityEngine.GameObject),2.1205884,1,1,0,null,-0.02293386,1.152691,3.172573,-0.2322033,1.103691,3.165265,-1.467402E-05,0.9846695,2.874673,null,null,
63,spatial,True,False,ao-incongruent,12,0,5.15328,impact_large_metal (UnityEngine.GameObject),slide_large_wood (UnityEngine.GameObject),2.5539587,1,0,0,null,-0.02223302,1.152768,3.17324,-0.6459681,1.103768,3.107683,-0.3310448,0.9489811,2.854163,null,null,
64,spatial,True,False,ao-congruent,4,0,-4.833835,slide_large_wood (UnityEngine.GameObject),slide_large_wood (UnityEngine.GameObject),2.3542228,0,0,0,null,-0.02344766,1.152828,3.172974,0.1858217,1.103828,3.165666,0.405241,0.9688328,2.841108,null,null,
65,spatial,True,False,ao-incongruent,8,0,-2.942444,impact_large_metal (UnityEngine.GameObject),slide_large_wood (UnityEngine.GameObject),3.2436717,0,0,0,null,-0.02400248,1.151948,3.173038,0.3935168,1.102948,3.143842,0.4756888,1.000715,2.824767,null,null,
66,spatial,True,False,ao-congruent,8,0,-2.102079,slide_large_metal (UnityEngine.GameObject),slide_large_metal (UnityEngine.GameObject),2.7764275,0,0,0,null,-0.02460125,1.151467,3.173785,0.3929181,1.102467,3.144589,0.3992705,1.011408,2.828759,null,null,
67,spatial,True,False,ao-incongruent,12,0,5.259522,slide_large_wood (UnityEngine.GameObject),impact_large_metal (UnityEngine.GameObject),2.5776804,1,0,0,null,-0.02463138,1.153459,3.173854,-0.6483665,1.103459,3.108296,-0.3270558,0.9211596,2.86298,null,null,
68,spatial,True,False,ao-incongruent,12,0,3.87924,slide_large_wood (UnityEngine.GameObject),impact_large_metal (UnityEngine.GameObject),2.6876863,1,0,0,null,-0.02550028,1.153782,3.173297,-0.6492354,1.103782,3.10774,-0.4077831,0.9332086,2.851682,null,null,
69,spatial,True,False,ao-congruent,12,0,-7.473202,slide_large_wood (UnityEngine.GameObject),slide_large_wood (UnityEngine.GameObject),2.4885933,0,0,0,null,-0.02742336,1.151729,3.174546,0.5963117,1.102729,3.108989,0.9163805,0.9763381,2.724957,null,null,
70,spatial,True,False,ao-incongruent,8,0,2.396861,slide_large_metal (UnityEngine.GameObject),impact_large_wood (UnityEngine.GameObject),2.6115431,1,0,0,null,-0.02740199,1.151917,3.174979,-0.4449213,1.101918,3.145783,-0.3208466,0.936937,2.858782,null,null,
71,spatial,True,False,ao-congruent,16,0,7.345051,impact_large_metal (UnityEngine.GameObject),impact_large_metal (UnityEngine.GameObject),2.2880906,1,0,0,null,-0.03357292,1.159777,3.161556,-0.8604852,1.109777,3.045341,-0.4091797,0.955707,2.844725,null,null,
72,spatial,True,False,ao-congruent,8,0,-2.271589,slide_large_wood (UnityEngine.GameObject),slide_large_wood (UnityEngine.GameObject),2.1884503,0,0,0,null,-0.02642556,1.16264,3.147393,0.3910938,1.11364,3.118197,0.436271,0.9793912,2.834968,null,null,
73,spatial,True,False,ao-congruent,8,0,-2.343014,slide_large_wood (UnityEngine.GameObject),slide_large_wood (UnityEngine.GameObject),2.2220808,0,0,0,null,-0.02662398,1.162638,3.146775,0.3908953,1.113638,3.117579,0.4366843,1.011873,2.825075,null,null,
74,spatial,True,False,ao-congruent,16,0,-3.286344,slide_large_wood (UnityEngine.GameObject),slide_large_wood (UnityEngine.GameObject),2.2878471,0,0,0,null,-0.02822025,1.162241,3.147499,0.798692,1.113242,3.031284,0.874185,1.006692,2.727686,null,null,
75,spatial,True,False,ao-congruent,4,0,3.625094,impact_large_metal (UnityEngine.GameObject),impact_large_metal (UnityEngine.GameObject),2.0322887,1,1,0,null,-0.02873487,1.162683,3.146676,0.1805345,1.112684,3.139369,-0.008420569,0.9550058,2.882882,null,null,
76,spatial,True,False,ao-congruent,12,0,10.21787,impact_large_wood (UnityEngine.GameObject),impact_large_wood (UnityEngine.GameObject),2.0412776,1,1,0,null,-0.02913645,1.162201,3.147425,0.5945987,1.112201,3.081868,0.007936685,0.9670487,2.879266,null,null,
77,spatial,True,False,ao-incongruent,4,0,3.6649,slide_large_wood (UnityEngine.GameObject),impact_large_metal (UnityEngine.GameObject),2.6092538,1,1,0,null,-0.03004943,1.161743,3.147788,0.17922,1.111743,3.140481,-0.01142481,0.96315,2.880127,null,null,
78,spatial,True,False,ao-congruent,8,0,2.30656,slide_large_metal (UnityEngine.GameObject),slide_large_metal (UnityEngine.GameObject),2.1654962,1,0,0,null,-0.03017158,1.160225,3.149161,-0.4476909,1.111225,3.119965,-0.3292133,0.9753875,2.846326,null,null,
79,spatial,True,False,ao-incongruent,12,0,2.850393,slide_large_wood (UnityEngine.GameObject),impact_large_metal (UnityEngine.GameObject),2.1991999,1,0,0,null,-0.03032385,1.160791,3.149862,0.5934112,1.110791,3.084304,0.4209912,0.9692036,2.839504,null,null,
80,spatial,True,False,ao-congruent,8,0,6.505025,impact_large_wood (UnityEngine.GameObject),impact_large_wood (UnityEngine.GameObject),1.9777501,1,1,0,null,-0.03072284,1.160378,3.150241,0.3867965,1.110378,3.121045,0.01969506,1.037541,2.856769,null,null,
81,spatial,True,False,ao-incongruent,12,0,5.109638,slide_large_wood (UnityEngine.GameObject),impact_large_metal (UnityEngine.GameObject),2.2439134,1,0,0,null,-0.03096445,1.160904,3.149809,-0.6546995,1.110904,3.084251,-0.3431919,0.994996,2.839054,null,null,
82,spatial,True,False,ao-incongruent,0,0,1.766136,slide_large_wood (UnityEngine.GameObject),impact_large_metal (UnityEngine.GameObject),2.1118473,1,1,0,null,-0.03037105,1.160124,3.14984,-0.03037105,1.110124,3.14984,0.008484391,0.9474055,2.885172,1.766136,null,
83,spatial,True,False,ao-incongruent,0,0,-1.755577,slide_large_metal (UnityEngine.GameObject),impact_large_wood (UnityEngine.GameObject),1.9337103,0,1,0,null,-0.03139976,1.159728,3.150752,-0.03139976,1.109728,3.150752,-0.03498391,0.996527,2.867772,-1.755577,null,
84,spatial,True,False,ao-incongruent,12,0,4.609977,slide_large_wood (UnityEngine.GameObject),impact_large_metal (UnityEngine.GameObject),2.8007767,1,0,0,null,-0.03084121,1.159619,3.150579,-0.6545763,1.109619,3.085022,-0.3713855,0.973711,2.842842,null,null,
85,spatial,True,False,ao-incongruent,4,0,3.96388,slide_large_wood (UnityEngine.GameObject),impact_large_metal (UnityEngine.GameObject),1.9557513,1,1,0,null,-0.03278214,1.159919,3.151008,-0.2420515,1.109919,3.1437,-0.02997559,0.9781425,2.873822,null,null,
86,spatial,True,False,ao-congruent,4,0,-5.149096,slide_large_metal (UnityEngine.GameObject),slide_large_metal (UnityEngine.GameObject),2.6203092,0,0,0,null,-0.03297479,1.158665,3.150406,0.1762946,1.109665,3.143099,0.4180737,0.9755816,2.837846,null,null,
87,spatial,True,False,ao-incongruent,4,0,-5.091468,impact_large_metal (UnityEngine.GameObject),slide_large_wood (UnityEngine.GameObject),2.5899981,0,0,0,null,-0.03297931,1.158683,3.150606,0.1762901,1.109683,3.143299,0.41278,0.9996552,2.831044,null,null,
88,spatial,True,False,ao-congruent,16,0,7.407667,slide_large_metal (UnityEngine.GameObject),slide_large_metal (UnityEngine.GameObject),2.2645864,1,0,0,null,-0.03183199,1.159283,3.150611,-0.8587443,1.110283,3.034396,-0.4052365,0.9980705,2.832247,null,null,
89,spatial,True,False,ao-congruent,12,0,-3.077271,slide_large_wood (UnityEngine.GameObject),slide_large_wood (UnityEngine.GameObject),2.166218,0,0,0,null,-0.03358807,1.158322,3.151547,-0.6573231,1.109322,3.08599,-0.7296043,0.9838483,2.777079,null,null,
90,spatial,True,False,ao-congruent,12,0,4.659049,slide_large_metal (UnityEngine.GameObject),slide_large_metal (UnityEngine.GameObject),2.6971918,1,0,0,null,-0.03333317,1.157743,3.152774,-0.6570683,1.108743,3.087217,-0.370791,0.9935706,2.836874,null,null,
91,spatial,True,False,ao-congruent,12,0,11.01113,impact_large_wood (UnityEngine.GameObject),impact_large_wood (UnityEngine.GameObject),2.0205939,1,1,0,null,-0.03360289,1.15835,3.152905,0.5901322,1.10835,3.087347,-0.03799609,1.050193,2.851207,null,null,
92,spatial,True,False,ao-congruent,12,0,10.88267,impact_large_metal (UnityEngine.GameObject),impact_large_metal (UnityEngine.GameObject),2.1769238,1,1,0,null,-0.03358018,1.158378,3.153129,0.5901549,1.108378,3.087572,-0.03085093,1.064924,2.847414,null,null,
93,spatial,True,False,ao-incongruent,4,0,4.116373,slide_large_wood (UnityEngine.GameObject),impact_large_metal (UnityEngine.GameObject),2.8410979,1,1,0,null,-0.03312368,1.158802,3.152325,-0.2423931,1.108802,3.145017,-0.02328878,1.020013,2.861755,null,null,
94,spatial,True,False,ao-incongruent,4,0,-6.046497,slide_large_wood (UnityEngine.GameObject),impact_large_metal (UnityEngine.GameObject),2.5557944,0,0,0,null,-0.03390029,1.15879,3.153053,0.1753691,1.10879,3.145745,0.468098,0.9671293,2.835673,null,null,
95,spatial,True,False,ao-incongruent,12,0,5.130379,slide_large_metal (UnityEngine.GameObject),impact_large_wood (UnityEngine.GameObject),2.1324813,1,0,0,null,-0.03478162,1.158144,3.153501,-0.6585167,1.108144,3.087944,-0.3452556,1.005229,2.835755,null,null,
96,spatial,True,False,ao-incongruent,8,0,-4.094382,slide_large_wood (UnityEngine.GameObject),impact_large_metal (UnityEngine.GameObject),2.2543795,0,0,0,null,-0.03550019,1.158204,3.153688,0.3820191,1.108204,3.124492,0.5478243,0.9686464,2.827665,null,null,
97,spatial,True,False,ao-incongruent,8,0,-3.659018,slide_large_metal (UnityEngine.GameObject),impact_large_wood (UnityEngine.GameObject),2.1987151,0,0,0,null,-0.03468578,1.15817,3.153798,0.3828335,1.10817,3.124602,0.5153331,1.030591,2.81195,null,null,
98,spatial,True,False,ao-congruent,4,0,-4.628381,slide_large_wood (UnityEngine.GameObject),slide_large_wood (UnityEngine.GameObject),3.1000408,0,0,0,null,-0.03365217,1.157026,3.153138,0.1756172,1.108027,3.14583,0.3925979,0.9090751,2.860432,null,null,
99,spatial,True,False,ao-congruent,12,0,2.417351,slide_large_metal (UnityEngine.GameObject),slide_large_metal (UnityEngine.GameObject),2.0203186,1,0,0,null,-0.03311512,1.157609,3.1527,0.5906199,1.108609,3.087142,0.4500448,1.002831,2.826553,null,null,
100,spatial,True,False,ao-incongruent,16,0,-4.174106,slide_large_wood (UnityEngine.GameObject),impact_large_metal (UnityEngine.GameObject),2.4428263,0,0,0,null,-0.03383902,1.158741,3.152983,0.7930733,1.108741,3.036768,0.9177343,1.016085,2.712023,null,null,
101,spatial,True,False,ao-incongruent,8,0,2.268399,slide_large_metal (UnityEngine.GameObject),impact_large_wood (UnityEngine.GameObject),2.8649196,1,0,0,null,-0.03475282,1.158743,3.152542,-0.4522721,1.108743,3.123346,-0.3476824,1.059407,2.819091,null,null,
102,spatial,True,False,ao-congruent,12,0,5.012508,slide_large_metal (UnityEngine.GameObject),slide_large_metal (UnityEngine.GameObject),2.3310251,1,0,0,null,-0.03488376,1.157544,3.152759,-0.6586188,1.108544,3.087201,-0.3520839,1.005128,2.835139,null,null,
103,spatial,True,False,ao-incongruent,16,0,-2.335065,slide_large_wood (UnityEngine.GameObject),impact_large_metal (UnityEngine.GameObject),2.7850125,0,0,0,null,-0.03661026,1.158266,3.15344,0.790302,1.108266,3.037225,0.8157266,0.9375861,2.766533,null,null,
104,spatial,True,False,ao-congruent,8,0,2.047175,slide_large_wood (UnityEngine.GameObject),slide_large_wood (UnityEngine.GameObject),2.4113533,1,0,0,null,-0.03677882,1.157471,3.152946,-0.4542981,1.108471,3.12375,-0.3546166,0.9329769,2.856786,null,null,
105,temporal,True,False,ao-incongruent,0,0,70.5675,slide_large_wood (UnityEngine.GameObject),impact_large_metal (UnityEngine.GameObject),3.8884501,null,null,0.18,0,-0.02289402,1.160402,3.147374,-0.02289402,1.110402,3.147374,0,0,0,null,null,
106,temporal,True,False,ao-congruent,0,0,-70.56872,slide_large_metal (UnityEngine.GameObject),slide_large_metal (UnityEngine.GameObject),3.7294857,null,null,0.175,0,0.00868582,1.158698,3.145662,0.00868582,1.109698,3.145662,0,0,0,null,null,
107,temporal,True,False,ao-congruent,0,0,70.59113,impact_large_wood (UnityEngine.GameObject),impact_large_wood (UnityEngine.GameObject),3.8879962,null,null,0.175,0,-0.02921513,1.159286,3.148296,-0.02921513,1.109286,3.148296,0,0,0,null,null,
108,temporal,True,False,ao-incongruent,0,0,70.23821,slide_large_metal (UnityEngine.GameObject),impact_large_wood (UnityEngine.GameObject),3.8967015,null,null,0.18,0,-0.03052888,1.181238,3.148572,-0.03052888,1.131238,3.148572,0,0,0,null,null,
109,temporal,True,False,ao-incongruent,0,0,4.414905,impact_large_metal (UnityEngine.GameObject),slide_large_wood (UnityEngine.GameObject),1.4887558,null,null,0,1,-0.03119052,1.177309,3.14991,-0.03119052,1.128309,3.14991,0.1841451,1.022214,2.845848,null,same,
110,temporal,True,False,ao-congruent,0,0,-7.172909,slide_large_metal (UnityEngine.GameObject),slide_large_metal (UnityEngine.GameObject),1.4762269,null,null,0,1,-0.03148434,1.175276,3.150606,-0.03148434,1.126276,3.150606,-0.3962296,1.014948,2.827981,null,same,
111,temporal,True,False,ao-congruent,0,0,70.33879,slide_large_metal (UnityEngine.GameObject),slide_large_metal (UnityEngine.GameObject),3.7321689,null,null,0.18,0,-0.03260078,1.174894,3.151053,-0.03260078,1.125894,3.151053,0,0,0,null,null,
112,temporal,True,False,ao-congruent,0,0,70.34496,impact_large_metal (UnityEngine.GameObject),impact_large_metal (UnityEngine.GameObject),3.899094,null,null,0.175,0,-0.03342433,1.17543,3.150816,-0.03342433,1.12543,3.150816,0,0,0,null,null,
113,temporal,True,False,ao-congruent,0,0,70.40092,impact_large_metal (UnityEngine.GameObject),impact_large_metal (UnityEngine.GameObject),3.8885202,null,null,0.18,0,-0.03535078,1.173043,3.153833,-0.03535078,1.123043,3.153833,0,0,0,null,null,
114,temporal,True,False,ao-congruent,0,0,70.40718,impact_large_wood (UnityEngine.GameObject),impact_large_wood (UnityEngine.GameObject),3.8861007,null,null,0.175,0,-0.03429832,1.172787,3.154216,-0.03429832,1.122787,3.154216,0,0,0,null,null,
115,temporal,True,False,ao-congruent,0,0,3.16075,impact_large_metal (UnityEngine.GameObject),impact_large_metal (UnityEngine.GameObject),2.108362,null,null,0.18,1,-0.0360043,1.172589,3.154956,-0.0360043,1.122589,3.154956,0.04546848,1.330624,2.727783,null,null,
116,temporal,True,False,ao-incongruent,0,0,70.43421,slide_large_metal (UnityEngine.GameObject),impact_large_wood (UnityEngine.GameObject),3.8987255,null,null,0.18,0,-0.03606588,1.171563,3.155468,-0.03606588,1.121563,3.155468,0,0,0,null,null,
117,temporal,True,False,ao-incongruent,0,0,70.43609,slide_large_metal (UnityEngine.GameObject),impact_large_wood (UnityEngine.GameObject),3.8969062,null,null,0.17,0,-0.0378323,1.171564,3.15578,-0.0378323,1.121564,3.15578,0,0,0,null,null,
118,temporal,True,False,ao-congruent,0,0,3.661104,impact_large_metal (UnityEngine.GameObject),impact_large_metal (UnityEngine.GameObject),2.0657912,null,null,0.17,1,-0.04023768,1.170523,3.15741,-0.04023768,1.120523,3.15741,0.06597617,1.398005,2.689826,null,null,
119,temporal,True,False,ao-incongruent,0,0,71.32558,slide_large_wood (UnityEngine.GameObject),impact_large_metal (UnityEngine.GameObject),3.8995161,null,null,0.18,0,-0.03310477,1.129729,3.194448,-0.03310477,1.079729,3.194448,0,0,0,null,null,
120,temporal,True,False,ao-incongruent,0,0,3.866043,slide_large_wood (UnityEngine.GameObject),impact_large_metal (UnityEngine.GameObject),1.8331244,null,null,0,1,-0.03385867,1.159214,3.172968,-0.03385867,1.109214,3.172968,0.08753143,1.386212,2.694088,null,same,
121,temporal,True,False,ao-incongruent,0,0,70.56807,slide_large_metal (UnityEngine.GameObject),impact_large_wood (UnityEngine.GameObject),3.8985439,null,null,0.175,0,-0.04219798,1.166113,3.163464,-0.04219798,1.116113,3.163464,0,0,0,null,null,
122,temporal,True,False,ao-incongruent,0,0,6.580911,impact_large_metal (UnityEngine.GameObject),slide_large_wood (UnityEngine.GameObject),1.6113055,null,null,0.17,1,-0.040171,1.165179,3.168683,-0.040171,1.116179,3.168683,0.2544696,1.400416,2.67069,null,null,
123,temporal,True,False,ao-incongruent,0,0,5.128354,impact_large_metal (UnityEngine.GameObject),slide_large_wood (UnityEngine.GameObject),1.590005,null,null,0.175,1,-0.04019918,1.166407,3.16379,-0.04019918,1.117407,3.16379,0.1725592,1.380433,2.689127,null,null,
124,temporal,True,False,ao-congruent,0,0,-3.883428,impact_large_metal (UnityEngine.GameObject),impact_large_metal (UnityEngine.GameObject),1.8325194,null,null,0.175,1,-0.04084281,1.167418,3.16308,-0.04084281,1.117418,3.16308,-0.1274841,1.464878,2.648266,null,null,
125,temporal,True,False,ao-congruent,0,0,2.808747,slide_large_wood (UnityEngine.GameObject),slide_large_wood (UnityEngine.GameObject),1.4445217,null,null,0,1,-0.04073551,1.166636,3.163161,-0.04073551,1.117636,3.163161,-0.03905332,1.32872,2.729417,null,same,
126,temporal,True,False,ao-congruent,0,0,3.138435,slide_large_wood (UnityEngine.GameObject),slide_large_wood (UnityEngine.GameObject),1.5101319,null,null,0.18,1,-0.04151058,1.166389,3.163535,-0.04151058,1.117389,3.163535,0.04098819,1.314376,2.736892,null,null,
127,temporal,True,False,ao-congruent,0,0,3.320364,slide_large_metal (UnityEngine.GameObject),slide_large_metal (UnityEngine.GameObject),2.4093346,null,null,0.17,1,-0.04133817,1.166484,3.162582,-0.04133817,1.117484,3.162582,0.0643601,1.294335,2.745392,null,null,
128,temporal,True,False,ao-congruent,0,0,3.24033,impact_large_wood (UnityEngine.GameObject),impact_large_wood (UnityEngine.GameObject),1.8447663,null,null,0,1,-0.04134064,1.166921,3.16324,-0.04134064,1.116921,3.16324,0.05404202,1.305251,2.740534,null,same,
129,temporal,True,False,ao-incongruent,0,0,70.55727,slide_large_wood (UnityEngine.GameObject),impact_large_metal (UnityEngine.GameObject),3.8987665,null,null,0.175,0,-0.0411399,1.166563,3.162852,-0.0411399,1.116563,3.162852,0,0,0,null,null,
130,temporal,True,False,ao-congruent,0,0,3.806475,slide_large_wood (UnityEngine.GameObject),slide_large_wood (UnityEngine.GameObject),1.9208267,null,null,0.18,1,-0.04145639,1.165543,3.1631,-0.04145639,1.116543,3.1631,0.05997964,1.448051,2.663643,null,null,
131,temporal,True,False,ao-incongruent,0,0,70.59807,slide_large_metal (UnityEngine.GameObject),impact_large_wood (UnityEngine.GameObject),3.8989794,null,null,0.18,0,-0.03371403,1.164487,3.164237,-0.03371403,1.114487,3.164237,0,0,0,null,null,
132,temporal,True,False,ao-congruent,0,0,4.345687,impact_large_wood (UnityEngine.GameObject),impact_large_wood (UnityEngine.GameObject),2.6984773,null,null,0.18,1,-0.03944499,1.164188,3.160731,-0.03944499,1.114188,3.160731,0.1076169,1.447591,2.659379,null,null,
133,temporal,True,False,ao-incongruent,0,0,4.679312,slide_large_wood (UnityEngine.GameObject),impact_large_metal (UnityEngine.GameObject),2.2974984,null,null,0.18,1,-0.04023583,1.163657,3.160603,-0.04023583,1.113657,3.160603,0.1182842,1.501013,2.629814,null,null,
134,temporal,True,False,ao-incongruent,0,0,70.60812,slide_large_metal (UnityEngine.GameObject),impact_large_wood (UnityEngine.GameObject),3.8963105,null,null,0.17,0,-0.04097599,1.162927,3.161492,-0.04097599,1.112927,3.161492,0,0,0,null,null,
135,temporal,True,False,ao-congruent,0,0,5.035167,slide_large_metal (UnityEngine.GameObject),slide_large_metal (UnityEngine.GameObject),1.977988,null,null,0.175,1,-0.04092057,1.161868,3.16175,-0.04092057,1.112869,3.16175,0.1318792,1.546173,2.604388,null,null,
136,temporal,True,False,ao-incongruent,0,0,70.62284,slide_large_metal (UnityEngine.GameObject),impact_large_wood (UnityEngine.GameObject),3.887741,null,null,0.17,0,-0.04165798,1.162157,3.16189,-0.04165798,1.112157,3.16189,0,0,0,null,null,
137,temporal,True,False,ao-congruent,0,0,70.63654,slide_large_wood (UnityEngine.GameObject),slide_large_wood (UnityEngine.GameObject),3.722321,null,null,0.175,0,-0.04287504,1.160558,3.162587,-0.04287504,1.111558,3.162587,0,0,0,null,null,
138,temporal,True,False,ao-congruent,0,0,5.018173,slide_large_wood (UnityEngine.GameObject),slide_large_wood (UnityEngine.GameObject),1.955594,null,null,0.17,1,-0.04273009,1.160466,3.162663,-0.04273009,1.111466,3.162663,0.1355683,1.519232,2.61844,null,null,
139,temporal,True,False,ao-congruent,0,0,70.65388,slide_large_metal (UnityEngine.GameObject),slide_large_metal (UnityEngine.GameObject),3.7202673,null,null,0.18,0,-0.04537819,1.159907,3.163761,-0.04537819,1.110907,3.163761,0,0,0,null,null,
140,temporal,True,False,ao-incongruent,0,0,70.99902,slide_large_wood (UnityEngine.GameObject),impact_large_metal (UnityEngine.GameObject),3.898439,null,null,0.17,0,-0.05092096,1.146733,3.18456,-0.05092096,1.096733,3.18456,0,0,0,null,null,
141,temporal,True,False,ao-congruent,0,0,5.747332,impact_large_wood (UnityEngine.GameObject),impact_large_wood (UnityEngine.GameObject),2.0547835,null,null,0.17,1,-0.04774963,1.151122,3.175106,-0.04774963,1.101122,3.175106,0.1954755,1.421124,2.665208,null,null,
142,temporal,True,False,ao-incongruent,0,0,7.466188,impact_large_metal (UnityEngine.GameObject),slide_large_wood (UnityEngine.GameObject),1.9348586,null,null,0.17,1,-0.04792733,1.151469,3.172244,-0.04792733,1.102469,3.172244,0.2912994,1.440434,2.645813,null,null,
143,temporal,True,False,ao-congruent,0,0,-9.577786,slide_large_wood (UnityEngine.GameObject),slide_large_wood (UnityEngine.GameObject),1.8097058,null,null,0.17,1,-0.04801077,1.1515,3.172554,-0.04801077,1.1025,3.172554,-0.4478132,1.662179,2.512478,null,null,
144,temporal,True,False,ao-congruent,0,0,-7.285804,slide_large_wood (UnityEngine.GameObject),slide_large_wood (UnityEngine.GameObject),2.0107698,null,null,0.18,1,-0.04777939,1.150014,3.175298,-0.04777939,1.101014,3.175298,-0.3515514,1.495176,2.610857,null,null,
145,temporal,True,False,ao-incongruent,0,0,70.88622,slide_large_wood (UnityEngine.GameObject),impact_large_metal (UnityEngine.GameObject),3.8977455,null,null,0.18,0,-0.04878883,1.150778,3.17601,-0.04878883,1.100778,3.17601,0,0,0,null,null,
146,temporal,True,False,ao-incongruent,0,0,-4.207054,impact_large_metal (UnityEngine.GameObject),slide_large_wood (UnityEngine.GameObject),2.1426423,null,null,0.18,1,-0.05069,1.149191,3.176363,-0.05069,1.100191,3.176363,-0.09099617,1.621582,2.567961,null,null,
147,temporal,True,False,ao-congruent,0,0,4.257678,impact_large_metal (UnityEngine.GameObject),impact_large_metal (UnityEngine.GameObject),2.0201587,null,null,0.175,1,-0.05016669,1.150664,3.174777,-0.05016669,1.100664,3.174777,0.02719915,1.618292,2.575752,null,null,
148,temporal,True,False,ao-incongruent,0,0,70.89025,slide_large_metal (UnityEngine.GameObject),impact_large_wood (UnityEngine.GameObject),3.8902047,null,null,0.175,0,-0.05130151,1.15027,3.175229,-0.05130151,1.10027,3.175229,0,0,0,null,null,
149,temporal,True,False,ao-incongruent,0,0,5.574818,impact_large_metal (UnityEngine.GameObject),slide_large_wood (UnityEngine.GameObject),1.6872362,null,null,0.17,1,-0.05221634,1.149422,3.175109,-0.05221634,1.100422,3.175109,0.1474405,1.589383,2.579819,null,null,
150,temporal,True,False,ao-incongruent,0,0,70.13221,slide_large_wood (UnityEngine.GameObject),impact_large_metal (UnityEngine.GameObject),3.8896891,null,null,0.18,0,-0.0540581,1.182275,3.132911,-0.0540581,1.132275,3.132911,0,0,0,null,null,
151,temporal,True,False,ao-incongruent,0,0,71.12735,slide_large_wood (UnityEngine.GameObject),impact_large_metal (UnityEngine.GameObject),3.889195,null,null,0.17,0,-0.03501649,1.143436,3.198457,-0.03501649,1.093436,3.198457,0,0,0,null,null,
152,temporal,True,False,ao-incongruent,0,0,71.12605,slide_large_wood (UnityEngine.GameObject),impact_large_metal (UnityEngine.GameObject),3.8861809,null,null,0.175,0,-0.03206844,1.14272,3.196155,-0.03206844,1.092721,3.196155,0,0,0,null,null,
153,temporal,True,False,ao-congruent,0,0,-4.131238,slide_large_metal (UnityEngine.GameObject),slide_large_metal (UnityEngine.GameObject),2.1446903,null,null,0.17,1,-0.033811,1.142274,3.196866,-0.033811,1.093275,3.196866,-0.05001912,1.611494,2.577233,null,null,
154,temporal,True,False,ao-congruent,0,0,3.890531,slide_large_wood (UnityEngine.GameObject),slide_large_wood (UnityEngine.GameObject),1.5439848,null,null,0.175,1,-0.04062398,1.144718,3.185196,-0.04062398,1.095718,3.185196,-0.02631937,1.577601,2.597593,null,null,
155,temporal,True,False,ao-congruent,0,0,4.343027,impact_large_metal (UnityEngine.GameObject),impact_large_metal (UnityEngine.GameObject),1.6984567,null,null,0,1,-0.03524784,1.149258,3.179197,-0.03524784,1.099258,3.179197,0.03517151,1.639849,2.563474,null,same,
156,temporal,True,False,ao-incongruent,0,0,71.01112,slide_large_wood (UnityEngine.GameObject),impact_large_metal (UnityEngine.GameObject),3.8772734,null,null,0.175,0,-0.04001724,1.146243,3.185477,-0.04001724,1.096243,3.185477,0,0,0,null,null,
157,temporal,True,False,ao-incongruent,0,0,4.89681,slide_large_metal (UnityEngine.GameObject),impact_large_wood (UnityEngine.GameObject),1.9019286,null,null,0,1,-0.0371209,1.148885,3.178972,-0.0371209,1.098885,3.178972,0.113624,1.574461,2.590997,null,same,
158,temporal,True,False,ao-incongruent,0,0,70.908,slide_large_wood (UnityEngine.GameObject),impact_large_metal (UnityEngine.GameObject),3.8885465,null,null,0.175,0,-0.03694514,1.150543,3.1794,-0.03694514,1.100543,3.1794,0,0,0,null,null,
159,temporal,True,False,ao-congruent,0,0,5.403234,impact_large_wood (UnityEngine.GameObject),impact_large_wood (UnityEngine.GameObject),2.2656146,null,null,0.18,1,-0.03689398,1.150347,3.179081,-0.03689398,1.100347,3.179081,0.1505718,1.57428,2.587595,null,null,
160,temporal,True,False,ao-incongruent,0,0,4.953177,impact_large_metal (UnityEngine.GameObject),slide_large_wood (UnityEngine.GameObject),1.8997946,null,null,0.18,1,-0.03766977,1.149062,3.178947,-0.03766977,1.100062,3.178947,0.1245548,1.547717,2.604257,null,null,
161,temporal,True,False,ao-congruent,0,0,70.5934,impact_large_wood (UnityEngine.GameObject),impact_large_wood (UnityEngine.GameObject),3.8986027,null,null,0.17,0,-0.0398644,1.159133,3.148143,-0.0398644,1.109133,3.148143,0,0,0,null,null,
162,temporal,True,False,ao-incongruent,0,0,71.03389,slide_large_wood (UnityEngine.GameObject),impact_large_metal (UnityEngine.GameObject),3.8975279,null,null,0.18,0,-0.1254677,1.138117,3.163718,-0.1254677,1.088117,3.163718,0,0,0,null,null,
163,temporal,True,False,ao-incongruent,0,0,8.767484,impact_large_metal (UnityEngine.GameObject),slide_large_wood (UnityEngine.GameObject),1.7422434,null,null,0.175,1,-0.1260472,1.137202,3.163245,-0.1260472,1.088202,3.163245,0.3114613,1.330036,2.702913,null,null,
164,temporal,True,False,ao-congruent,0,0,10.56299,impact_large_metal (UnityEngine.GameObject),impact_large_metal (UnityEngine.GameObject),2.0107132,null,null,0.17,1,-0.1276999,1.138264,3.16313,-0.1276999,1.088264,3.16313,0.3966352,1.396955,2.65908,null,null,
165,temporal,True,False,ao-congruent,0,0,14.97243,impact_large_metal (UnityEngine.GameObject),impact_large_metal (UnityEngine.GameObject),1.9430311,null,null,0.18,1,-0.1282329,1.137928,3.16302,-0.1282329,1.087928,3.16302,0.6241139,1.383683,2.629779,null,null,
166,temporal,True,False,ao-incongruent,0,0,12.49812,slide_large_wood (UnityEngine.GameObject),impact_large_metal (UnityEngine.GameObject),2.4990897,null,null,0,1,-0.1294562,1.137819,3.163424,-0.1294562,1.087819,3.163424,0.5117934,1.282982,2.709097,null,same,
167,temporal,True,False,ao-incongruent,0,0,71.26505,slide_large_metal (UnityEngine.GameObject),impact_large_wood (UnityEngine.GameObject),3.908661,null,null,0.175,0,-0.09031856,1.128095,3.177425,-0.09031856,1.078095,3.177425,0,0,0,null,null,
168,temporal,True,False,ao-incongruent,0,0,71.15816,slide_large_wood (UnityEngine.GameObject),impact_large_metal (UnityEngine.GameObject),3.8979993,null,null,0.17,0,-0.1002696,1.13201,3.169206,-0.1002696,1.08201,3.169206,0,0,0,null,null,
169,temporal,True,False,ao-incongruent,0,0,71.20039,slide_large_wood (UnityEngine.GameObject),impact_large_metal (UnityEngine.GameObject),3.8980575,null,null,0.17,0,-0.09981932,1.130906,3.173641,-0.09981932,1.080906,3.173641,0,0,0,null,null,
170,temporal,True,False,ao-incongruent,0,0,18.97327,slide_large_wood (UnityEngine.GameObject),impact_large_metal (UnityEngine.GameObject),3.2982174,null,null,0.175,1,-0.100829,1.13031,3.173169,-0.100829,1.08031,3.173169,0.8610163,1.280761,2.617908,null,null,
171,temporal,True,False,ao-congruent,0,0,11.79605,impact_large_wood (UnityEngine.GameObject),impact_large_wood (UnityEngine.GameObject),1.9875684,null,null,0.175,1,-0.1017781,1.130369,3.172696,-0.1017781,1.080369,3.172696,0.4882118,1.356909,2.671815,null,null,
172,temporal,True,False,ao-congruent,0,0,13.86928,slide_large_wood (UnityEngine.GameObject),slide_large_wood (UnityEngine.GameObject),1.866995,null,null,0.175,1,-0.1025272,1.129098,3.172457,-0.1025272,1.080098,3.172457,0.6049459,1.281372,2.692241,null,null,
173,temporal,True,False,ao-congruent,0,0,71.23593,slide_large_metal (UnityEngine.GameObject),slide_large_metal (UnityEngine.GameObject),3.7321216,null,null,0.175,0,-0.1043155,1.127992,3.174331,-0.1043155,1.078992,3.174331,0,0,0,null,null,
174,temporal,True,False,ao-congruent,0,0,24.94245,slide_large_metal (UnityEngine.GameObject),slide_large_metal (UnityEngine.GameObject),1.6106299,null,null,0.18,1,-0.1053956,1.129208,3.17238,-0.1053956,1.080208,3.17238,1.119854,1.419421,2.453982,null,null,
175,temporal,True,False,ao-congruent,0,0,71.19685,impact_large_metal (UnityEngine.GameObject),impact_large_metal (UnityEngine.GameObject),3.8989801,null,null,0.17,0,-0.1050335,1.130466,3.171538,-0.1050335,1.080466,3.171538,0,0,0,null,null,
176,temporal,True,False,ao-incongruent,0,0,30.6151,impact_large_metal (UnityEngine.GameObject),slide_large_wood (UnityEngine.GameObject),1.6884843,null,null,0.175,1,-0.106154,1.128866,3.172826,-0.106154,1.079866,3.172826,1.385386,1.381761,2.340261,null,null,
177,temporal,True,False,ao-congruent,0,0,71.23409,slide_large_metal (UnityEngine.GameObject),slide_large_metal (UnityEngine.GameObject),3.7333215,null,null,0.17,0,-0.1076064,1.128057,3.174077,-0.1076064,1.079057,3.174077,0,0,0,null,null,
178,temporal,True,False,ao-congruent,0,0,33.0871,slide_large_wood (UnityEngine.GameObject),slide_large_wood (UnityEngine.GameObject),1.7638329,null,null,0.17,1,-0.1063263,1.128132,3.173978,-0.1063263,1.079132,3.173978,1.48583,1.423226,2.263639,null,null,
179,temporal,True,False,ao-incongruent,0,0,34.37753,impact_large_metal (UnityEngine.GameObject),slide_large_wood (UnityEngine.GameObject),1.6659033,null,null,0.18,1,-0.1063845,1.129054,3.172359,-0.1063845,1.080054,3.172359,1.529601,1.473504,2.210824,null,null,
180,temporal,True,False,ao-congruent,0,0,9.587203,impact_large_wood (UnityEngine.GameObject),impact_large_wood (UnityEngine.GameObject),2.5655693,null,null,0.17,1,-0.1075279,1.129615,3.172466,-0.1075279,1.079615,3.172466,0.3617778,1.395638,2.663085,null,null,
181,temporal,True,False,ao-incongruent,0,0,18.31109,slide_large_wood (UnityEngine.GameObject),impact_large_metal (UnityEngine.GameObject),2.4658448,null,null,0.175,1,-0.1084374,1.128855,3.17351,-0.1084374,1.078855,3.17351,0.7948267,1.431048,2.553668,null,null,
182,temporal,True,False,ao-incongruent,0,0,23.21783,slide_large_wood (UnityEngine.GameObject),impact_large_metal (UnityEngine.GameObject),1.9428678,null,null,0.17,1,-0.1090655,1.128571,3.173506,-0.1090655,1.078571,3.173506,1.047917,1.365491,2.516308,null,null,
183,temporal,True,False,ao-incongruent,0,0,28.04453,slide_large_wood (UnityEngine.GameObject),impact_large_metal (UnityEngine.GameObject),1.8564506,null,null,0.17,1,-0.1085995,1.128516,3.172352,-0.1085995,1.078516,3.172352,1.237351,1.497265,2.346657,null,null,
184,temporal,True,False,ao-congruent,0,0,30.99556,impact_large_wood (UnityEngine.GameObject),impact_large_wood (UnityEngine.GameObject),2.1102158,null,null,0.18,1,-0.1092701,1.128362,3.172773,-0.1092701,1.078362,3.172773,1.36096,1.52355,2.26729,null,null,
185,spatial,True,False,ao-incongruent,8,0,6.657732,slide_large_wood (UnityEngine.GameObject),impact_large_metal (UnityEngine.GameObject),7.6517213,1,1,0,null,-0.01073339,1.152155,3.148339,-0.4282527,1.102155,3.119143,-0.05017596,1.067739,2.844731,null,null,
186,spatial,True,False,ao-incongruent,8,0,1.696852,slide_large_metal (UnityEngine.GameObject),impact_large_wood (UnityEngine.GameObject),2.231211,1,0,0,null,-0.0075095,1.156722,3.136991,-0.4250288,1.106722,3.107795,-0.3834751,0.9857024,2.83806,null,null,
187,spatial,True,False,ao-congruent,12,0,3.57971,slide_large_metal (UnityEngine.GameObject),slide_large_metal (UnityEngine.GameObject),1.744647,1,0,0,null,-0.008214334,1.156377,3.133923,0.6155207,1.107377,3.068366,0.3983872,1.09593,2.803202,null,null,
188,spatial,True,False,ao-incongruent,12,0,3.673811,impact_large_metal (UnityEngine.GameObject),slide_large_wood (UnityEngine.GameObject),1.5213582,1,0,0,null,-0.01071418,1.155324,3.134914,-0.6344492,1.106324,3.069356,-0.4079587,0.9602615,2.843459,null,null,
189,spatial,True,False,ao-incongruent,4,0,-5.020398,impact_large_metal (UnityEngine.GameObject),slide_large_wood (UnityEngine.GameObject),1.5006092,0,0,0,null,-0.01371104,1.154827,3.135432,-0.2229804,1.105827,3.128124,-0.4547306,0.9869634,2.83093,null,null,
190,spatial,True,False,ao-congruent,8,0,-1.779383,slide_large_wood (UnityEngine.GameObject),slide_large_wood (UnityEngine.GameObject),1.5448673,0,0,0,null,-0.01544261,1.15442,3.135218,-0.4329619,1.10542,3.106022,-0.4048923,1.027079,2.823481,null,null,
191,spatial,True,False,ao-congruent,8,0,7.259879,impact_large_wood (UnityEngine.GameObject),impact_large_wood (UnityEngine.GameObject),1.6414509,1,1,0,null,-0.005162205,1.149538,3.145056,0.4123571,1.099538,3.11586,-0.0004449545,0.9436978,2.887067,null,null,
192,spatial,True,False,ao-incongruent,12,0,3.657412,slide_large_wood (UnityEngine.GameObject),impact_large_metal (UnityEngine.GameObject),2.0651164,1,0,0,null,0.0007032081,1.149029,3.142162,-0.6230319,1.099029,3.076604,-0.3981664,0.9626466,2.843663,null,null,
193,spatial,True,False,ao-incongruent,12,0,3.513462,slide_large_wood (UnityEngine.GameObject),impact_large_metal (UnityEngine.GameObject),1.8873399,1,0,0,null,-0.002423979,1.148325,3.143368,-0.6261591,1.098325,3.07781,-0.4096202,0.9681256,2.840916,null,null,
194,spatial,True,False,ao-incongruent,8,0,2.241928,slide_large_wood (UnityEngine.GameObject),impact_large_metal (UnityEngine.GameObject),2.0874099,1,0,0,null,0.002689311,1.152677,3.14162,-0.41483,1.102677,3.112424,-0.301358,0.9764734,2.848634,null,null,
195,spatial,True,False,ao-congruent,8,0,7.127529,impact_large_metal (UnityEngine.GameObject),impact_large_metal (UnityEngine.GameObject),2.1561395,1,1,0,null,-0.02216716,1.149637,3.149824,0.3953522,1.099638,3.120628,-0.009055767,0.939804,2.887433,null,null,
196,spatial,True,False,ao-incongruent,12,0,3.467353,impact_large_metal (UnityEngine.GameObject),slide_large_wood (UnityEngine.GameObject),1.655137,1,0,0,null,-0.021293,1.150855,3.143351,-0.6450281,1.101855,3.077794,-0.4296743,0.9629198,2.840596,null,null,
197,spatial,True,False,ao-congruent,4,0,3.99895,slide_large_wood (UnityEngine.GameObject),slide_large_wood (UnityEngine.GameObject),1.9300175,1,1,0,null,-0.01961875,1.152629,3.141647,-0.2288882,1.103629,3.134339,-0.01340261,0.9475042,2.884685,null,null,
198,spatial,True,False,ao-congruent,4,0,-4.296645,impact_large_metal (UnityEngine.GameObject),impact_large_metal (UnityEngine.GameObject),1.9653738,0,0,0,null,-0.0167064,1.153598,3.140506,-0.2259758,1.103598,3.133198,-0.4175189,0.9567528,2.843618,null,null,
199,spatial,True,False,ao-incongruent,8,0,-1.592253,slide_large_wood (UnityEngine.GameObject),impact_large_metal (UnityEngine.GameObject),2.0911814,0,0,0,null,-0.01918249,1.152896,3.141167,-0.4367018,1.102896,3.111971,-0.4368517,0.8641589,2.869876,null,null,
200,spatial,True,False,ao-congruent,4,0,4.505935,impact_large_wood (UnityEngine.GameObject),impact_large_wood (UnityEngine.GameObject),1.9648373,1,1,0,null,-0.01805795,1.152432,3.143681,0.1912115,1.102432,3.136373,-0.04931043,0.9662754,2.875592,null,null,
201,spatial,True,False,ao-congruent,16,0,16.31207,impact_large_wood (UnityEngine.GameObject),impact_large_wood (UnityEngine.GameObject),1.9340188,1,1,0,null,-0.02619378,1.201916,2.867214,-0.8531061,1.151917,2.750999,0.01827169,1.235173,2.781377,null,null,
202,spatial,True,False,ao-incongruent,16,0,-3.130316,slide_large_wood (UnityEngine.GameObject),impact_large_metal (UnityEngine.GameObject),2.5233318,0,0,0,null,-0.01744988,1.210858,2.872635,0.8094624,1.160858,2.75642,0.9709341,0.987631,2.705486,null,null,
203,spatial,True,False,ao-congruent,4,0,3.885041,slide_large_metal (UnityEngine.GameObject),slide_large_metal (UnityEngine.GameObject),1.7436936,1,1,0,null,-0.0229392,1.203198,2.871881,0.1863302,1.154198,2.864573,-0.02291837,1.09404,2.839334,null,null,
204,spatial,True,False,ao-congruent,8,0,1.207394,impact_large_metal (UnityEngine.GameObject),impact_large_metal (UnityEngine.GameObject),2.5110677,1,0,0,null,-0.02292998,1.203727,2.872991,-0.4404493,1.153728,2.843796,-0.3726012,1.046882,2.820531,null,null,
205,spatial,True,False,ao-incongruent,4,0,3.686793,impact_large_metal (UnityEngine.GameObject),slide_large_wood (UnityEngine.GameObject),1.5429471,1,1,0,null,-0.02310658,1.202683,2.873732,0.1861628,1.153683,2.866424,-0.01259733,1.085457,2.842914,null,null,
206,spatial,True,False,ao-congruent,16,0,1.769678,slide_large_metal (UnityEngine.GameObject),slide_large_metal (UnityEngine.GameObject),1.7764344,1,0,0,null,-0.03951745,1.161197,3.138443,-0.8664297,1.112198,3.022228,-0.7614724,0.9679589,2.772798,null,null,
207,spatial,True,False,ao-congruent,8,0,5.73593,impact_large_metal (UnityEngine.GameObject),impact_large_metal (UnityEngine.GameObject),1.9746135,1,1,0,null,-0.03771269,1.155821,3.152572,-0.455232,1.105821,3.123376,-0.1231733,0.9258054,2.880875,null,null,
208,spatial,True,False,ao-incongruent,16,0,2.177896,slide_large_metal (UnityEngine.GameObject),impact_large_wood (UnityEngine.GameObject),2.4894777,1,0,0,null,-0.03964972,1.155419,3.150802,-0.866562,1.105419,3.034587,-0.7218777,0.9858821,2.77869,null,null,
209,spatial,True,False,ao-incongruent,16,0,6.096993,slide_large_wood (UnityEngine.GameObject),impact_large_metal (UnityEngine.GameObject),2.0769465,1,0,0,null,-0.04162265,1.156886,3.147433,0.7852896,1.106886,3.031218,0.4115356,1.014962,2.826519,null,null,
210,spatial,True,False,ao-incongruent,16,0,5.51036,slide_large_wood (UnityEngine.GameObject),impact_large_metal (UnityEngine.GameObject),2.0670331,1,0,0,null,-0.04231509,1.157519,3.145149,0.7845972,1.107519,3.028934,0.4446177,0.9476112,2.843817,null,null,
211,spatial,True,False,ao-congruent,16,0,14.945,impact_large_wood (UnityEngine.GameObject),impact_large_wood (UnityEngine.GameObject),1.7981076,1,1,0,null,-0.04404383,1.159007,3.140918,0.7828684,1.109007,3.024703,-0.06663971,1.031724,2.854097,null,null,
212,spatial,True,False,ao-congruent,4,0,5.680927,impact_large_metal (UnityEngine.GameObject),impact_large_metal (UnityEngine.GameObject),2.2300444,1,1,0,null,-0.04581902,1.158625,3.141014,0.1634504,1.108625,3.133706,-0.1384704,1.011345,2.853479,null,null,
213,spatial,True,False,ao-congruent,4,0,5.276298,impact_large_wood (UnityEngine.GameObject),impact_large_wood (UnityEngine.GameObject),1.7449125,1,1,0,null,-0.04596909,1.158622,3.140904,0.1633003,1.108622,3.133596,-0.1166324,1.000402,2.858865,null,null,
214,spatial,True,False,ao-congruent,8,0,-1.807428,slide_large_metal (UnityEngine.GameObject),slide_large_metal (UnityEngine.GameObject),2.9895651,0,0,0,null,-0.04683094,1.15711,3.140665,0.3706884,1.10811,3.111469,0.3764204,0.9779058,2.841084,null,null,
215,spatial,True,False,ao-incongruent,12,0,4.159913,slide_large_metal (UnityEngine.GameObject),impact_large_wood (UnityEngine.GameObject),2.4426719,1,0,0,null,-0.0500145,1.157542,3.141148,-0.6737496,1.107542,3.075591,-0.4153645,0.9903085,2.833643,null,null,
216,spatial,True,False,ao-incongruent,12,0,3.180939,slide_large_wood (UnityEngine.GameObject),impact_large_metal (UnityEngine.GameObject),2.932741,1,0,0,null,-0.0517403,1.157637,3.140021,0.5719948,1.107637,3.074464,0.3793294,0.9334973,2.85428,null,null,
217,spatial,True,False,ao-incongruent,8,0,1.780482,slide_large_metal (UnityEngine.GameObject),impact_large_wood (UnityEngine.GameObject),2.1650099,1,0,0,null,-0.05274288,1.157614,3.140102,-0.4702622,1.107615,3.110906,-0.4295853,1.007855,2.826974,null,null,
218,spatial,True,False,ao-incongruent,4,0,3.168483,slide_large_wood (UnityEngine.GameObject),impact_large_metal (UnityEngine.GameObject),1.7898089,1,1,0,null,-0.05295267,1.157318,3.139982,-0.2622221,1.107318,3.132675,-0.09617538,0.9666289,2.871047,null,null,
219,spatial,True,False,ao-incongruent,8,0,1.641156,slide_large_wood (UnityEngine.GameObject),impact_large_metal (UnityEngine.GameObject),2.1652588,1,0,0,null,-0.05357188,1.157561,3.139657,-0.4710912,1.107561,3.110462,-0.4229115,0.9347267,2.849789,null,null,
220,spatial,True,False,ao-incongruent,4,0,-4.598575,slide_large_wood (UnityEngine.GameObject),impact_large_metal (UnityEngine.GameObject),2.1437596,0,0,0,null,-0.05246107,1.157495,3.139285,0.1568083,1.107495,3.131977,0.369366,0.9937366,2.83695,null,null,
221,spatial,True,False,ao-congruent,16,0,5.033377,slide_large_metal (UnityEngine.GameObject),slide_large_metal (UnityEngine.GameObject),2.3420537,1,0,0,null,-0.05269217,1.156278,3.139132,0.7742201,1.107278,3.022917,0.4616262,1.000166,2.826265,null,null,
222,spatial,True,False,ao-incongruent,12,0,3.528865,slide_large_wood (UnityEngine.GameObject),impact_large_metal (UnityEngine.GameObject),1.8772549,1,0,0,null,-0.05625796,1.156642,3.138817,0.5674771,1.106642,3.07326,0.3555818,1.007064,2.834213,null,null,
223,spatial,True,False,ao-incongruent,8,0,7.780664,impact_large_metal (UnityEngine.GameObject),slide_large_wood (UnityEngine.GameObject),3.0203221,1,1,0,null,-0.06930959,1.152365,3.135753,0.3482097,1.103365,3.106557,-0.08496949,1.023352,2.854902,null,null,
224,spatial,True,False,ao-incongruent,4,0,4.257954,slide_large_wood (UnityEngine.GameObject),impact_large_metal (UnityEngine.GameObject),1.6196915,1,1,0,null,-0.0611732,1.152239,3.134086,-0.2704426,1.102239,3.126778,-0.03869934,0.998737,2.866749,null,null,
225,spatial,True,False,ao-congruent,8,0,1.708117,slide_large_metal (UnityEngine.GameObject),slide_large_metal (UnityEngine.GameObject),2.2223893,1,0,0,null,-0.05420994,1.148811,3.142826,-0.4717293,1.099811,3.11363,-0.4037748,0.9215263,2.855605,null,null,
226,spatial,True,False,ao-incongruent,12,0,4.185492,slide_large_metal (UnityEngine.GameObject),impact_large_wood (UnityEngine.GameObject),1.910905,1,0,0,null,-0.05287972,1.151066,3.138894,-0.6766148,1.101066,3.073337,-0.4165849,0.9961395,2.831758,null,null,
227,spatial,True,False,ao-incongruent,4,0,-4.993987,slide_large_metal (UnityEngine.GameObject),impact_large_wood (UnityEngine.GameObject),2.3877744,0,0,0,null,-0.05240981,1.151105,3.138608,0.1568596,1.101105,3.131299,0.3918938,0.9958659,2.834171,null,null,
228,spatial,True,False,ao-congruent,4,0,4.265628,slide_large_wood (UnityEngine.GameObject),slide_large_wood (UnityEngine.GameObject),1.5880059,1,1,0,null,-0.05287087,1.150039,3.138367,-0.2621403,1.101039,3.131059,-0.03267907,1.04229,2.854108,null,null,
229,spatial,True,False,ao-incongruent,8,0,7.207507,impact_large_metal (UnityEngine.GameObject),slide_large_wood (UnityEngine.GameObject),1.6317944,1,1,0,null,-0.05245654,1.150766,3.137583,0.3650628,1.101766,3.108387,-0.03858958,1.023129,2.85936,null,null,
230,spatial,True,False,ao-congruent,16,0,14.67638,impact_large_metal (UnityEngine.GameObject),impact_large_metal (UnityEngine.GameObject),1.7202734,1,1,0,null,-0.05348268,1.152107,3.137569,-0.8803949,1.102107,3.021354,-0.03564876,0.9911945,2.869326,null,null,
231,spatial,True,False,ao-incongruent,4,0,11.45112,slide_large_wood (UnityEngine.GameObject),impact_large_metal (UnityEngine.GameObject),2.4094068,1,0,0,null,-0.1364414,1.150836,3.098555,-0.3457108,1.100836,3.091247,0.2867745,0.9421324,2.860424,null,null,
232,spatial,True,False,ao-congruent,8,0,8.181726,impact_large_wood (UnityEngine.GameObject),impact_large_wood (UnityEngine.GameObject),2.3876162,1,1,0,null,-0.1365255,1.149342,3.096212,-0.5540448,1.099342,3.067016,-0.08386163,0.9768763,2.869104,null,null,
233,spatial,True,False,ao-incongruent,8,0,-2.269348,slide_large_wood (UnityEngine.GameObject),impact_large_metal (UnityEngine.GameObject),2.0012873,0,0,0,null,-0.1362809,1.149763,3.093633,0.2812384,1.099763,3.064438,0.3540783,1.021264,2.830047,null,null,
234,spatial,True,False,ao-incongruent,12,0,11.1028,slide_large_metal (UnityEngine.GameObject),impact_large_wood (UnityEngine.GameObject),2.2094425,1,1,0,null,-0.136904,1.148942,3.093317,0.486831,1.098942,3.02776,-0.1295173,1.075007,2.835015,null,null,
235,spatial,True,False,ao-incongruent,4,0,4.030363,slide_large_metal (UnityEngine.GameObject),impact_large_wood (UnityEngine.GameObject),2.4093517,1,1,0,null,-0.1376038,1.148847,3.091165,-0.3468732,1.098847,3.083857,-0.1236481,1.065468,2.838464,null,null,
236,spatial,True,False,ao-congruent,12,0,11.5259,impact_large_wood (UnityEngine.GameObject),impact_large_wood (UnityEngine.GameObject),1.7871285,1,1,0,null,-0.1383231,1.147753,3.091051,0.4854119,1.097753,3.025493,-0.1543283,1.021888,2.848779,null,null,
237,spatial,True,False,ao-congruent,16,0,-1.600833,slide_large_wood (UnityEngine.GameObject),slide_large_wood (UnityEngine.GameObject),2.0556637,0,0,0,null,-0.1403911,1.147088,3.088812,0.6865212,1.098088,2.972597,0.7089617,0.9627208,2.789737,null,null,
238,spatial,True,False,ao-congruent,16,0,1.848221,slide_large_wood (UnityEngine.GameObject),slide_large_wood (UnityEngine.GameObject),2.0884132,1,0,0,null,-0.1376897,1.146416,3.089703,-0.964602,1.097416,2.973488,-0.843555,1.045089,2.72453,null,null,
239,spatial,True,False,ao-incongruent,4,0,3.915817,slide_large_metal (UnityEngine.GameObject),impact_large_wood (UnityEngine.GameObject),1.8110344,1,1,0,null,-0.13892,1.147009,3.089319,-0.3481894,1.097009,3.082011,-0.1336051,1.12303,2.820059,null,null,
240,spatial,True,False,ao-congruent,12,0,2.156312,slide_large_wood (UnityEngine.GameObject),slide_large_wood (UnityEngine.GameObject),2.3094506,1,0,0,null,-0.1393603,1.146902,3.086732,0.4843748,1.097902,3.021174,0.3609698,1.005256,2.83425,null,null,
241,spatial,True,False,ao-congruent,16,0,15.05134,impact_large_wood (UnityEngine.GameObject),impact_large_wood (UnityEngine.GameObject),1.9454796,1,1,0,null,-0.1402346,1.151213,3.081388,0.6866777,1.101213,2.965173,-0.1471285,1.094405,2.827462,null,null,
242,spatial,True,False,ao-congruent,12,0,3.293485,slide_large_metal (UnityEngine.GameObject),slide_large_metal (UnityEngine.GameObject),1.8550553,1,0,0,null,-0.1422715,1.149293,3.082951,-0.7660066,1.100294,3.017394,-0.5536525,1.048208,2.802987,null,null,
243,spatial,True,False,ao-congruent,16,0,1.851501,slide_large_wood (UnityEngine.GameObject),slide_large_wood (UnityEngine.GameObject),2.0545184,1,0,0,null,-0.143132,1.148634,3.084726,-0.9700443,1.099634,2.968511,-0.8437768,1.015194,2.733896,null,null,
244,spatial,True,False,ao-incongruent,16,0,13.65558,impact_large_metal (UnityEngine.GameObject),slide_large_wood (UnityEngine.GameObject),2.1766736,1,1,0,null,-0.1427992,1.148475,3.085063,0.6841131,1.099475,2.968848,-0.07662035,1.056616,2.845602,null,null,
245,spatial,True,False,ao-incongruent,12,0,11.66446,impact_large_metal (UnityEngine.GameObject),slide_large_wood (UnityEngine.GameObject),1.71042,1,1,0,null,-0.1394448,1.148969,3.083288,0.4842903,1.099969,3.017731,-0.1609831,1.065922,2.834791,null,null,
246,spatial,True,False,ao-incongruent,4,0,-5.490265,slide_large_wood (UnityEngine.GameObject),impact_large_metal (UnityEngine.GameObject),2.0875009,0,0,0,null,-0.1401014,1.135563,3.135719,0.06916797,1.085563,3.128411,0.3432266,0.9527982,2.851843,null,null,
247,spatial,True,False,ao-incongruent,16,0,3.690296,slide_large_wood (UnityEngine.GameObject),impact_large_metal (UnityEngine.GameObject),2.5556686,1,0,0,null,-0.1381776,1.136324,3.133897,0.6887347,1.086324,3.017682,0.4598252,0.9749436,2.834086,null,null,
248,spatial,True,False,ao-congruent,12,0,11.05238,impact_large_metal (UnityEngine.GameObject),impact_large_metal (UnityEngine.GameObject),1.8010696,1,1,0,null,-0.1378592,1.13713,3.13129,-0.7615943,1.08713,3.065732,-0.1174721,0.9878006,2.862608,null,null,
249,spatial,True,False,ao-congruent,8,0,7.167027,impact_large_wood (UnityEngine.GameObject),impact_large_wood (UnityEngine.GameObject),1.8441254,1,1,0,null,-0.1381599,1.136799,3.130885,-0.5556792,1.086799,3.101689,-0.1383525,1.008531,2.854343,null,null,
250,spatial,True,False,ao-congruent,4,0,4.321236,slide_large_metal (UnityEngine.GameObject),slide_large_metal (UnityEngine.GameObject),2.0549538,1,1,0,null,-0.1377749,1.135751,3.130906,-0.3470443,1.086751,3.123598,-0.1055589,0.9880891,2.863649,null,null,
251,spatial,True,False,ao-congruent,8,0,1.763141,slide_large_metal (UnityEngine.GameObject),slide_large_metal (UnityEngine.GameObject),2.1976623,1,0,0,null,-0.1384169,1.141339,3.111424,-0.5559362,1.092339,3.082228,-0.4832208,1.031509,2.814721,null,null,
252,spatial,True,False,ao-congruent,12,0,10.61031,impact_large_metal (UnityEngine.GameObject),impact_large_metal (UnityEngine.GameObject),2.9663728,1,1,0,null,0.1618345,1.181255,2.928374,0.7855696,1.131255,2.862816,0.1990696,0.9794057,2.857421,null,null,
253,spatial,True,False,ao-congruent,12,0,-4.9149,slide_large_wood (UnityEngine.GameObject),slide_large_wood (UnityEngine.GameObject),1.9762132,0,0,0,null,0.1430622,1.180743,2.91996,-0.4806729,1.131743,2.854403,-0.7317969,1.026154,2.763093,null,null,
254,spatial,True,False,ao-congruent,12,0,2.986161,slide_large_metal (UnityEngine.GameObject),slide_large_metal (UnityEngine.GameObject),1.9228986,1,0,0,null,0.1455645,1.176775,2.918499,-0.4781705,1.127775,2.852941,-0.3126245,1.080456,2.816025,null,null,
255,spatial,True,False,ao-incongruent,8,0,-2.305116,slide_large_wood (UnityEngine.GameObject),impact_large_metal (UnityEngine.GameObject),2.4755898,0,0,0,null,0.1460859,1.178288,2.916013,0.5636052,1.128288,2.886817,0.6710325,0.966761,2.799523,null,null,
256,spatial,True,False,ao-incongruent,16,0,6.00319,slide_large_wood (UnityEngine.GameObject),impact_large_metal (UnityEngine.GameObject),1.933163,1,0,0,null,0.1463643,1.17838,2.914649,-0.680548,1.128381,2.798434,-0.3578089,1.038626,2.824435,null,null,
257,spatial,True,False,ao-incongruent,16,0,6.055406,slide_large_wood (UnityEngine.GameObject),impact_large_metal (UnityEngine.GameObject),2.1978286,1,0,0,null,0.1468787,1.178186,2.914756,-0.6800336,1.128186,2.798541,-0.3547427,1.032393,2.826617,null,null,
258,spatial,True,False,ao-incongruent,4,0,1.179851,slide_large_wood (UnityEngine.GameObject),impact_large_metal (UnityEngine.GameObject),2.5648249,1,1,0,null,0.1499315,1.178787,2.91335,-0.0593379,1.128787,2.906043,0.00269785,1.027749,2.861349,null,null,
259,spatial,True,False,ao-congruent,12,0,10.54348,impact_large_wood (UnityEngine.GameObject),impact_large_wood (UnityEngine.GameObject),2.3329998,1,1,0,null,0.1509941,1.17934,2.91169,-0.472741,1.12934,2.846133,0.09453432,1.040348,2.848832,null,null,
260,spatial,True,False,ao-incongruent,12,0,3.858235,slide_large_wood (UnityEngine.GameObject),impact_large_metal (UnityEngine.GameObject),2.2696293,1,0,0,null,0.1533677,1.184747,2.901946,-0.4703674,1.134748,2.836388,-0.2605089,1.078714,2.821487,null,null,
261,spatial,True,False,ao-congruent,4,0,-5.39296,slide_large_wood (UnityEngine.GameObject),slide_large_wood (UnityEngine.GameObject),2.5540351,0,0,0,null,0.1500802,1.182752,2.904474,-0.05918917,1.133752,2.897167,-0.3483014,0.9501414,2.852177,null,null,
262,spatial,True,False,ao-congruent,8,0,1.135739,slide_large_wood (UnityEngine.GameObject),slide_large_wood (UnityEngine.GameObject),2.932061,1,0,0,null,0.1508101,1.182463,2.906051,-0.2667092,1.133463,2.876855,-0.2046838,0.93587,2.870104,null,null,
263,spatial,True,False,ao-incongruent,16,0,16.80777,impact_large_metal (UnityEngine.GameObject),slide_large_wood (UnityEngine.GameObject),2.6449232,1,1,0,null,0.1546899,1.182515,2.903439,-0.6722224,1.133515,2.787224,0.2229586,1.141303,2.806048,null,null,
264,spatial,True,False,ao-congruent,12,0,12.05594,slide_large_wood (UnityEngine.GameObject),slide_large_wood (UnityEngine.GameObject),2.2746728,1,1,0,null,0.1556365,1.182976,2.902234,-0.4680985,1.133976,2.836677,0.1782529,1.070636,2.831717,null,null,
265,spatial,True,False,ao-incongruent,8,0,-4.806645,slide_large_metal (UnityEngine.GameObject),impact_large_wood (UnityEngine.GameObject),3.268571,0,0,0,null,0.1560688,1.183868,2.902782,0.5735882,1.133868,2.873586,0.8129896,0.9721503,2.756427,null,null,
266,spatial,True,False,ao-congruent,16,0,16.09297,impact_large_metal (UnityEngine.GameObject),impact_large_metal (UnityEngine.GameObject),2.3455266,1,1,0,null,0.1578447,1.183102,2.904078,-0.6690676,1.133102,2.787863,0.1900327,1.031662,2.842425,null,null,
267,spatial,True,False,ao-congruent,16,0,13.21561,slide_large_metal (UnityEngine.GameObject),slide_large_metal (UnityEngine.GameObject),3.1322544,1,1,0,null,0.1609183,1.182178,2.903756,-0.665994,1.133178,2.787541,0.03897178,1.106796,2.833935,null,null,
268,spatial,True,False,ao-congruent,4,0,2.421962,slide_large_metal (UnityEngine.GameObject),slide_large_metal (UnityEngine.GameObject),2.8981428,1,1,0,null,0.1617511,1.182989,2.900876,-0.04751827,1.133989,2.893568,0.08242773,1.008849,2.859533,null,null,
269,spatial,True,False,ao-congruent,16,0,15.7554,impact_large_metal (UnityEngine.GameObject),impact_large_metal (UnityEngine.GameObject),2.4114824,1,1,0,null,-0.01431662,1.157001,3.052226,0.8125957,1.107002,2.936011,-0.06599551,0.9879853,2.867426,null,null,
270,spatial,True,False,ao-congruent,12,0,11.97801,impact_large_metal (UnityEngine.GameObject),impact_large_metal (UnityEngine.GameObject),2.3535484,1,1,0,null,0.1179947,1.178737,2.927267,0.7417298,1.128737,2.86171,0.08464381,1.014423,2.857632,null,null,
271,spatial,True,False,ao-congruent,8,0,-1.268103,slide_large_wood (UnityEngine.GameObject),slide_large_wood (UnityEngine.GameObject),1.9205473,0,0,0,null,0.12561,1.17652,2.924952,0.5431293,1.12752,2.895756,0.5882486,1.031472,2.803249,null,null,
272,spatial,True,False,ao-incongruent,16,0,5.443269,slide_large_metal (UnityEngine.GameObject),impact_large_wood (UnityEngine.GameObject),2.4765554,1,0,0,null,0.1282532,1.179993,2.928124,0.9551655,1.129993,2.811909,0.6401198,1.070643,2.775766,null,null,
273,spatial,True,False,ao-congruent,4,0,4.031869,impact_large_metal (UnityEngine.GameObject),impact_large_metal (UnityEngine.GameObject),2.2877051,1,1,0,null,0.1256236,1.178519,2.931116,-0.08364581,1.12852,2.923808,0.1331554,0.9922127,2.859776,null,null,
274,spatial,True,False,ao-congruent,4,0,3.22604,impact_large_wood (UnityEngine.GameObject),impact_large_wood (UnityEngine.GameObject),1.7120905,1,1,0,null,0.1281547,1.179049,2.926781,-0.08111471,1.129049,2.919473,0.08985882,1.094532,2.832838,null,null,
275,spatial,True,False,ao-incongruent,16,0,5.317877,slide_large_metal (UnityEngine.GameObject),impact_large_wood (UnityEngine.GameObject),2.1306075,1,0,0,null,0.1275254,1.178653,2.925978,0.9544377,1.128653,2.809763,0.6499679,1.009544,2.792169,null,null,
276,spatial,True,False,ao-congruent,12,0,11.4047,impact_large_wood (UnityEngine.GameObject),impact_large_wood (UnityEngine.GameObject),2.1005182,1,1,0,null,0.1269009,1.178261,2.925684,-0.4968342,1.128261,2.860127,0.1185891,1.072098,2.836923,null,null,
277,spatial,True,False,ao-incongruent,8,0,7.25385,impact_large_metal (UnityEngine.GameObject),slide_large_wood (UnityEngine.GameObject),1.4644481,1,1,0,null,0.1286403,1.177549,2.932257,-0.288879,1.128549,2.903061,0.1036905,1.063444,2.840959,null,null,
278,spatial,True,False,ao-incongruent,16,0,15.5119,impact_large_metal (UnityEngine.GameObject),slide_large_wood (UnityEngine.GameObject),1.5438755,1,1,0,null,0.1278628,1.177408,2.931536,0.9547751,1.128408,2.815321,0.1046879,1.069066,2.839159,null,null,
279,spatial,True,False,ao-incongruent,12,0,2.04306,slide_large_wood (UnityEngine.GameObject),impact_large_metal (UnityEngine.GameObject),2.9748635,1,0,0,null,0.1303011,1.176301,2.940163,-0.493434,1.126301,2.874606,-0.3772863,1.011221,2.830905,null,null,
280,spatial,True,False,ao-incongruent,4,0,5.218681,impact_large_metal (UnityEngine.GameObject),slide_large_wood (UnityEngine.GameObject),1.6981171,1,1,0,null,0.1274062,1.177253,2.935616,0.3366756,1.128253,2.928308,0.0495715,1.004249,2.864039,null,null,
281,temporal,True,True,ao-congruent,0,0,70.95345,impact_large_wood (UnityEngine.GameObject),impact_large_wood (UnityEngine.GameObject),3.8976985,null,null,0.175,0,-0.01766052,1.148766,3.182598,-0.01766052,1.098766,3.182598,0,0,0,null,null,
282,temporal,True,False,ao-incongruent,0,0,69.88336,slide_large_wood (UnityEngine.GameObject),impact_large_metal (UnityEngine.GameObject),3.8968254,null,null,0.175,0,-0.09768443,1.18457,3.09603,-0.09768443,1.13457,3.09603,0,0,0,null,null,
283,temporal,True,False,ao-incongruent,0,0,71.2289,slide_large_metal (UnityEngine.GameObject),impact_large_wood (UnityEngine.GameObject),3.8969443,null,null,0.18,0,-0.06039814,1.135875,3.194446,-0.06039814,1.085875,3.194446,0,0,0,null,null,
284,temporal,True,False,ao-congruent,0,0,-13.06334,slide_large_wood (UnityEngine.GameObject),slide_large_wood (UnityEngine.GameObject),1.9003166,null,null,0.17,1,-0.06266955,1.137034,3.189414,-0.06266955,1.088034,3.189414,-0.6502727,1.570348,2.518415,null,null,
285,temporal,True,False,ao-congruent,0,0,71.17,impact_large_metal (UnityEngine.GameObject),impact_large_metal (UnityEngine.GameObject),3.8987081,null,null,0.175,0,-0.06107779,1.137345,3.187996,-0.06107779,1.087345,3.187996,0,0,0,null,null,
286,temporal,True,False,ao-congruent,0,0,71.1593,impact_large_metal (UnityEngine.GameObject),impact_large_metal (UnityEngine.GameObject),3.8995216,null,null,0.17,0,-0.06280053,1.137816,3.187395,-0.06280053,1.087816,3.187395,0,0,0,null,null,
287,temporal,True,False,ao-incongruent,0,0,71.16869,slide_large_wood (UnityEngine.GameObject),impact_large_metal (UnityEngine.GameObject),3.8883981,null,null,0.18,0,-0.06346427,1.137281,3.187523,-0.06346427,1.087281,3.187523,0,0,0,null,null,
288,temporal,True,False,ao-incongruent,0,0,-8.728209,slide_large_wood (UnityEngine.GameObject),impact_large_metal (UnityEngine.GameObject),3.3894885,null,null,0.17,1,-0.0648301,1.138561,3.182798,-0.0648301,1.088561,3.182798,-0.3558171,1.84482,2.38079,null,null,
289,temporal,True,False,ao-congruent,0,0,4.891606,impact_large_wood (UnityEngine.GameObject),impact_large_wood (UnityEngine.GameObject),2.5897265,null,null,0.18,1,-0.06497894,1.137027,3.184968,-0.06497894,1.087027,3.184968,-0.01991351,1.765557,2.477644,null,null,
290,temporal,True,False,ao-congruent,0,0,5.567572,impact_large_metal (UnityEngine.GameObject),impact_large_metal (UnityEngine.GameObject),2.2994567,null,null,0.175,1,-0.06707308,1.137909,3.182045,-0.06707308,1.087909,3.182045,-0.05071625,1.86461,2.393437,null,null,
291,temporal,True,False,ao-incongruent,0,0,71.17998,slide_large_wood (UnityEngine.GameObject),impact_large_metal (UnityEngine.GameObject),3.899557,null,null,0.175,0,-0.06632616,1.137683,3.190701,-0.06632616,1.087683,3.190701,0,0,0,null,null,
292,temporal,True,False,ao-incongruent,0,0,71.16522,slide_large_wood (UnityEngine.GameObject),impact_large_metal (UnityEngine.GameObject),3.8865514,null,null,0.175,0,-0.06663347,1.137602,3.187768,-0.06663347,1.087602,3.187768,0,0,0,null,null,
293,temporal,True,False,ao-congruent,0,0,-2.303928,impact_large_metal (UnityEngine.GameObject),impact_large_metal (UnityEngine.GameObject),3.2447563,null,null,0.17,1,-0.06481004,1.135139,3.19148,-0.06481004,1.085139,3.19148,-0.1430663,0.8448826,2.903539,null,null,
294,temporal,True,False,ao-congruent,0,0,3.182293,slide_large_wood (UnityEngine.GameObject),slide_large_wood (UnityEngine.GameObject),2.0092628,null,null,0.18,1,-0.1218915,1.12258,3.209469,-0.1218915,1.07358,3.209469,0.04951136,0.4614817,3.001264,null,null,
295,temporal,True,False,ao-incongruent,0,0,7.417646,impact_large_metal (UnityEngine.GameObject),slide_large_wood (UnityEngine.GameObject),1.6328873,null,null,0.17,1,-0.1183837,1.124349,3.206163,-0.1183837,1.075349,3.206163,0.2941775,0.4150634,2.982671,null,null,
296,temporal,True,False,ao-incongruent,0,0,10.31891,slide_large_wood (UnityEngine.GameObject),impact_large_metal (UnityEngine.GameObject),2.4888013,null,null,0.18,1,-0.1166436,1.125519,3.20619,-0.1166436,1.075519,3.20619,0.4554328,0.5412357,2.954976,null,null,
297,temporal,True,False,ao-incongruent,0,0,71.62566,slide_large_metal (UnityEngine.GameObject),impact_large_wood (UnityEngine.GameObject),3.8891644,null,null,0.175,0,-0.0953186,1.116596,3.209691,-0.0953186,1.066596,3.209691,0,0,0,null,null,
298,temporal,True,False,ao-incongruent,0,0,13.35312,slide_large_wood (UnityEngine.GameObject),impact_large_metal (UnityEngine.GameObject),2.2653286,null,null,0.18,1,-0.0958118,1.116678,3.211973,-0.0958118,1.066678,3.211973,0.5827451,1.279055,2.700003,null,null,
299,temporal,True,False,ao-incongruent,0,0,8.424106,slide_large_wood (UnityEngine.GameObject),impact_large_metal (UnityEngine.GameObject),2.0546108,null,null,0.175,1,-0.09825426,1.111748,3.209628,-0.09825426,1.061748,3.209628,0.3646241,0.6154534,2.95215,null,null,
300,temporal,True,False,ao-incongruent,0,0,30.05511,slide_large_wood (UnityEngine.GameObject),impact_large_metal (UnityEngine.GameObject),2.9551801,null,null,0.17,1,-0.1010618,1.11,3.214548,-0.1010618,1.06,3.214548,1.504331,0.5563984,2.608473,null,null,
301,temporal,True,False,ao-incongruent,0,0,58.7957,impact_large_metal (UnityEngine.GameObject),slide_large_wood (UnityEngine.GameObject),2.1003348,null,null,0.18,1,-0.1043657,1.11266,3.213321,-0.1043657,1.06366,3.213321,2.627232,-0.7738079,1.478765,null,null,
302,temporal,True,False,ao-incongruent,0,0,63.39699,slide_large_wood (UnityEngine.GameObject),impact_large_metal (UnityEngine.GameObject),2.6075734,null,null,0.175,1,-0.1043703,1.12116,3.207713,-0.1043703,1.07116,3.207713,2.747316,-0.8043523,1.243236,null,null,
303,temporal,True,False,ao-incongruent,0,0,-73.61591,slide_large_wood (UnityEngine.GameObject),impact_large_metal (UnityEngine.GameObject),2.1468143,null,null,0.18,1,-0.09405272,1.142587,3.187766,-0.09405272,1.092587,3.187766,-2.30703,2.045605,0.3250648,null,null,
304,temporal,True,False,ao-congruent,0,0,70.81597,impact_large_metal (UnityEngine.GameObject),impact_large_metal (UnityEngine.GameObject),3.8974803,null,null,0.18,0,-0.0752182,1.151727,3.165677,-0.0752182,1.101727,3.165677,0,0,0,null,null,
305,temporal,True,False,ao-incongruent,0,0,-116.4879,slide_large_metal (UnityEngine.GameObject),impact_large_wood (UnityEngine.GameObject),2.1883525,null,null,0.17,1,-0.09963345,1.145572,3.155036,-0.09963345,1.095572,3.155036,-1.979506,1.515706,-1.812132,null,null,
306,temporal,True,False,ao-congruent,0,0,-50.5924,slide_large_metal (UnityEngine.GameObject),slide_large_metal (UnityEngine.GameObject),2.1987899,null,null,0.17,1,-0.08356741,1.145416,3.164976,-0.08356741,1.096417,3.164976,-2.165432,1.663852,1.470069,null,null,
307,temporal,True,False,ao-incongruent,0,0,4.514404,impact_large_metal (UnityEngine.GameObject),slide_large_wood (UnityEngine.GameObject),1.9554386,null,null,0.17,1,-0.0763249,1.143182,3.172283,-0.0763249,1.094182,3.172283,0.135024,1.180327,2.799639,null,null,
308,temporal,True,False,ao-congruent,0,0,72.00224,impact_large_metal (UnityEngine.GameObject),impact_large_metal (UnityEngine.GameObject),1.909804,null,null,0.18,1,-0.07559954,1.143352,3.171545,-0.07559954,1.093352,3.171545,2.935363,0.7994973,0.7456616,null,null,
309,temporal,True,False,ao-congruent,0,0,107.7555,impact_large_metal (UnityEngine.GameObject),impact_large_metal (UnityEngine.GameObject),1.9211848,null,null,0.17,1,-0.07325925,1.14309,3.169802,-0.07325925,1.09309,3.169802,2.384995,1.523344,-1.261039,null,null,
310,temporal,True,False,ao-incongruent,0,0,-133.8798,slide_large_wood (UnityEngine.GameObject),impact_large_metal (UnityEngine.GameObject),3.3319431,null,null,0.17,1,-0.07539794,1.145085,3.172671,-0.07539794,1.095085,3.172671,-0.7707312,1.659652,-2.433706,null,null,
311,temporal,True,False,ao-congruent,0,0,-7.588351,impact_large_wood (UnityEngine.GameObject),impact_large_wood (UnityEngine.GameObject),1.9897074,null,null,0.17,1,-0.07073572,1.140475,3.17975,-0.07073572,1.090475,3.17975,-0.3394671,1.718901,2.485677,null,null,
312,temporal,True,False,ao-incongruent,0,0,-9.62731,slide_large_metal (UnityEngine.GameObject),impact_large_wood (UnityEngine.GameObject),3.5318871,null,null,0.17,1,-0.0832794,1.140063,3.176891,-0.0832794,1.090063,3.176891,-0.6078975,0.4829228,2.946292,null,null,
313,temporal,True,False,ao-congruent,0,0,26.29227,impact_large_wood (UnityEngine.GameObject),impact_large_wood (UnityEngine.GameObject),2.1423711,null,null,0.18,1,-0.0771184,1.137707,3.181903,-0.0771184,1.087708,3.181903,1.314994,0.7849762,2.636525,null,null,
314,temporal,True,False,ao-incongruent,0,0,-28.66129,impact_large_metal (UnityEngine.GameObject),slide_large_wood (UnityEngine.GameObject),1.830929,null,null,0.175,1,-0.07698902,1.138537,3.176124,-0.07698902,1.089537,3.176124,-1.570678,0.7064924,2.532058,null,null,
315,temporal,True,False,ao-incongruent,0,0,71.12955,slide_large_wood (UnityEngine.GameObject),impact_large_metal (UnityEngine.GameObject),3.8971038,null,null,0.17,0,-0.078522,1.137471,3.180628,-0.078522,1.087471,3.180628,0,0,0,null,null,
316,temporal,True,False,ao-congruent,0,0,71.11917,slide_large_wood (UnityEngine.GameObject),slide_large_wood (UnityEngine.GameObject),3.7286594,null,null,0.18,0,-0.08043817,1.136481,3.178727,-0.08043817,1.087481,3.178727,0,0,0,null,null,
317,temporal,True,False,ao-incongruent,0,0,-125.6963,slide_large_metal (UnityEngine.GameObject),impact_large_wood (UnityEngine.GameObject),2.2197447,null,null,0.18,1,-0.1571551,1.14423,3.146611,-0.1571551,1.09423,3.146611,-1.469188,1.465636,-2.246716,null,null,
318,temporal,True,False,ao-congruent,0,0,118.438,slide_large_wood (UnityEngine.GameObject),slide_large_wood (UnityEngine.GameObject),2.6191487,null,null,0.175,1,0.0485173,1.153484,3.121694,0.0485173,1.104484,3.121694,1.716699,1.812247,-1.788542,null,null,
319,temporal,True,False,ao-incongruent,0,0,135.6821,impact_large_metal (UnityEngine.GameObject),slide_large_wood (UnityEngine.GameObject),2.532815,null,null,0.17,1,-0.06086725,1.138287,3.184215,-0.06086725,1.089288,3.184215,0.06100467,1.989855,-2.289726,null,null,
320,temporal,True,False,ao-incongruent,0,0,-5.14068,slide_large_metal (UnityEngine.GameObject),impact_large_wood (UnityEngine.GameObject),3.1767656,null,null,0.175,1,-0.07570185,1.136123,3.184772,-0.07570185,1.086123,3.184772,-0.3050192,1.168134,2.79007,null,null,
321,temporal,True,False,ao-congruent,0,0,-30.09145,slide_large_wood (UnityEngine.GameObject),slide_large_wood (UnityEngine.GameObject),2.0228185,null,null,0.175,1,-0.07801551,1.13633,3.184016,-0.07801551,1.08733,3.184016,-1.488055,1.432133,2.257169,null,null,
322,temporal,True,False,ao-incongruent,0,0,71.21033,slide_large_wood (UnityEngine.GameObject),impact_large_metal (UnityEngine.GameObject),3.8982474,null,null,0.17,0,-0.08035818,1.135468,3.189414,-0.08035818,1.085468,3.189414,0,0,0,null,null,
323,temporal,True,False,ao-congruent,0,0,136.1334,impact_large_wood (UnityEngine.GameObject),impact_large_wood (UnityEngine.GameObject),2.2996957,null,null,0.175,1,-0.07772182,1.137072,3.187324,-0.07772182,1.087072,3.187324,-0.06269517,1.93314,-2.33612,null,null,
324,temporal,True,False,ao-incongruent,0,0,71.03174,slide_large_metal (UnityEngine.GameObject),impact_large_wood (UnityEngine.GameObject),3.8983853,null,null,0.17,0,-0.07985571,1.143012,3.179056,-0.07985571,1.093012,3.179056,0,0,0,null,null,
325,temporal,True,False,ao-congruent,0,0,-8.217117,slide_large_metal (UnityEngine.GameObject),slide_large_metal (UnityEngine.GameObject),1.7545229,null,null,0.175,1,-0.08036734,1.139702,3.180583,-0.08036734,1.090702,3.180583,-0.4446551,1.410669,2.647212,null,null,
326,temporal,True,False,ao-congruent,0,0,134.618,slide_large_metal (UnityEngine.GameObject),slide_large_metal (UnityEngine.GameObject),1.7902246,null,null,0.175,1,-0.08285196,1.140198,3.175325,-0.08285196,1.091198,3.175325,0.3464239,2.036039,-2.2248,null,null,
327,temporal,True,False,ao-congruent,0,0,135.1085,impact_large_wood (UnityEngine.GameObject),impact_large_wood (UnityEngine.GameObject),2.7651953,null,null,0.17,1,-0.08450577,1.142647,3.173833,-0.08450577,1.092647,3.173833,0.05506642,2.039586,-2.249475,null,null,
328,temporal,True,False,ao-congruent,0,0,-2.846338,slide_large_metal (UnityEngine.GameObject),slide_large_metal (UnityEngine.GameObject),1.7214669,null,null,0.17,1,-0.0847446,1.138097,3.180746,-0.0847446,1.089097,3.180746,-0.231633,-0.120252,3.017625,null,null,
329,temporal,True,False,ao-congruent,0,0,71.15857,slide_large_metal (UnityEngine.GameObject),slide_large_metal (UnityEngine.GameObject),3.7230875,null,null,0.175,0,-0.1059011,1.135302,3.181682,-0.1059011,1.086302,3.181682,0,0,0,null,null,
330,temporal,True,False,ao-congruent,0,0,24.59265,slide_large_metal (UnityEngine.GameObject),slide_large_metal (UnityEngine.GameObject),2.420882,null,null,0.18,1,-0.05002013,1.141073,3.187097,-0.05002013,1.092073,3.187097,1.20584,1.164367,2.562743,null,null,
331,temporal,True,False,ao-congruent,0,0,-31.13656,impact_large_wood (UnityEngine.GameObject),impact_large_wood (UnityEngine.GameObject),2.6105828,null,null,0.175,1,-0.1535038,1.14396,3.136766,-0.1535038,1.09396,3.136766,-1.685552,1.105783,2.323882,null,null,
332,temporal,True,False,ao-incongruent,0,0,-4.56025,slide_large_metal (UnityEngine.GameObject),impact_large_wood (UnityEngine.GameObject),2.4197209,null,null,0.18,1,-0.1228549,1.124786,3.199856,-0.1228549,1.074786,3.199856,-0.3046961,1.192333,2.777166,null,null,
333,temporal,True,False,ao-incongruent,0,0,-3.905552,slide_large_wood (UnityEngine.GameObject),impact_large_metal (UnityEngine.GameObject),2.0421868,null,null,0.18,1,-0.0853245,1.120301,3.216514,-0.0853245,1.070302,3.216514,-0.2101619,1.266317,2.746572,null,null,
334,temporal,True,False,ao-incongruent,0,0,2.792952,impact_large_metal (UnityEngine.GameObject),slide_large_wood (UnityEngine.GameObject),1.6659705,null,null,0.175,1,-0.08808181,1.122512,3.226861,-0.08808181,1.073512,3.226861,-0.04953716,1.240247,2.775714,null,null,
335,temporal,True,False,ao-incongruent,0,0,4.427353,impact_large_metal (UnityEngine.GameObject),slide_large_wood (UnityEngine.GameObject),1.9673421,null,null,0.18,1,-0.1110677,1.11386,3.229723,-0.1110677,1.06486,3.229723,0.08085638,1.249806,2.767631,null,null,
336,temporal,True,False,ao-congruent,0,0,71.70869,slide_large_metal (UnityEngine.GameObject),slide_large_metal (UnityEngine.GameObject),3.7313655,null,null,0.17,0,-0.1106245,1.116222,3.226729,-0.1106245,1.067222,3.226729,0,0,0,null,null,
337,temporal,True,False,ao-congruent,0,0,5.066355,slide_large_wood (UnityEngine.GameObject),slide_large_wood (UnityEngine.GameObject),1.7793333,null,null,0.18,1,-0.1113636,1.117399,3.224578,-0.1113636,1.068399,3.224578,0.1014213,1.373476,2.699581,null,null,
338,temporal,True,False,ao-incongruent,0,0,71.72369,slide_large_metal (UnityEngine.GameObject),impact_large_wood (UnityEngine.GameObject),3.8984057,null,null,0.175,0,-0.1125941,1.116652,3.227775,-0.1125941,1.066652,3.227775,0,0,0,null,null,
339,temporal,True,False,ao-congruent,0,0,10.93135,impact_large_wood (UnityEngine.GameObject),impact_large_wood (UnityEngine.GameObject),2.3644899,null,null,0.18,1,-0.1128506,1.115807,3.227984,-0.1128506,1.065807,3.227984,0.4336498,1.327409,2.692749,null,null,
340,temporal,True,False,ao-incongruent,0,0,71.63885,slide_large_wood (UnityEngine.GameObject),impact_large_metal (UnityEngine.GameObject),3.8771163,null,null,0.17,0,-0.1145454,1.12067,3.22382,-0.1145454,1.07067,3.22382,0,0,0,null,null,
341,temporal,True,False,ao-congruent,0,0,10.72627,slide_large_wood (UnityEngine.GameObject),slide_large_wood (UnityEngine.GameObject),1.6078733,null,null,0.17,1,-0.1130925,1.120654,3.221382,-0.1130925,1.071654,3.221382,0.3972306,1.510374,2.5984,null,null,
342,temporal,True,False,ao-congruent,0,0,9.355152,slide_large_wood (UnityEngine.GameObject),slide_large_wood (UnityEngine.GameObject),1.6436046,null,null,0.17,1,-0.1147086,1.12057,3.219307,-0.1147086,1.07157,3.219307,0.3448101,1.357856,2.684886,null,null,
343,temporal,True,False,ao-congruent,0,0,13.37896,impact_large_metal (UnityEngine.GameObject),impact_large_metal (UnityEngine.GameObject),2.4964779,null,null,0.18,1,-0.1153295,1.122409,3.217865,-0.1153295,1.072409,3.217865,0.5550465,1.369054,2.658051,null,null,
344,temporal,True,False,ao-congruent,0,0,13.61239,slide_large_metal (UnityEngine.GameObject),slide_large_metal (UnityEngine.GameObject),2.5763537,null,null,0.18,1,-0.1162576,1.120675,3.218568,-0.1162576,1.071675,3.218568,0.5562133,1.433458,2.621911,null,null,
345,temporal,True,False,ao-incongruent,0,0,13.78872,impact_large_metal (UnityEngine.GameObject),slide_large_wood (UnityEngine.GameObject),1.822685,null,null,0.175,1,-0.116195,1.122165,3.217421,-0.116195,1.073165,3.217421,0.5688593,1.408412,2.632145,null,null,
346,temporal,True,False,ao-incongruent,0,0,-10.01473,impact_large_metal (UnityEngine.GameObject),slide_large_wood (UnityEngine.GameObject),2.0096769,null,null,0.18,1,-0.07093823,1.100468,3.215453,-0.07093823,1.051468,3.215453,-0.5396944,1.345641,2.672971,null,null,
347,temporal,True,False,ao-congruent,0,0,-19.21684,slide_large_metal (UnityEngine.GameObject),slide_large_metal (UnityEngine.GameObject),2.5759473,null,null,0.18,1,0.01526427,1.159221,3.124699,0.01526427,1.110221,3.124699,-1.028227,0.6337042,2.800458,null,null,
348,temporal,True,False,ao-incongruent,0,0,70.78792,slide_large_wood (UnityEngine.GameObject),impact_large_metal (UnityEngine.GameObject),3.8883297,null,null,0.18,0,-0.008494615,1.144953,3.142131,-0.008494615,1.094953,3.142131,0,0,0,null,null,
349,temporal,True,False,ao-congruent,0,0,81.74129,impact_large_wood (UnityEngine.GameObject),impact_large_wood (UnityEngine.GameObject),2.1014733,null,null,0.17,1,-0.01365276,1.145164,3.139102,-0.01365276,1.095164,3.139102,2.443982,1.91977,0.03602695,null,null,
350,temporal,True,False,ao-congruent,0,0,-91.51581,slide_large_wood (UnityEngine.GameObject),slide_large_wood (UnityEngine.GameObject),1.6889423,null,null,0.175,1,-0.02447696,1.143248,3.146825,-0.02447696,1.094248,3.146825,-2.899405,1.113892,-0.4909334,null,null,
351,temporal,True,False,ao-incongruent,0,0,-41.75754,slide_large_wood (UnityEngine.GameObject),impact_large_metal (UnityEngine.GameObject),1.9882859,null,null,0.175,1,-0.04840574,1.134655,3.157002,-0.04840574,1.084655,3.157002,-1.942889,1.436511,1.911732,null,null,
352,temporal,True,False,ao-congruent,0,0,-13.93406,impact_large_metal (UnityEngine.GameObject),impact_large_metal (UnityEngine.GameObject),1.9221045,null,null,0.175,1,-0.03376873,1.133744,3.183118,-0.03376873,1.083744,3.183118,-0.7295398,1.231505,2.683654,null,null,
