Trialnum, Trialtype, Trial_Valid, Trial_Paused, Congruency_Type, Spatialoffset, Distance Biasing, Angle Biasing, Audio_Stim, Visual_Stim, Responsetime, Correct_Bias_Direction, Same_Location_Judgment, Temporaloffset, Simultaneity_Judgment, visual_x, visual_y, visual_z, audio_x, audio_y, audio_z, response_x, response_y, response_z, baseline_spatial_error, baseline_temporal_same,,
5,spatial,TRUE,FALSE,ao-congruent,0,0,-4.922747,slide_large_metal (UnityEngine.GameObject),slide_large_metal (UnityEngine.GameObject),3.0405207,0,0,0,null,0.4151905,1.093049,2.859592,0.4151905,1.094049,2.859592,0.1508848,0.9132277,2.882058,-4.922747,null,,0.5
9,spatial,TRUE,FALSE,ao-congruent,0,0,3.714466,slide_large_wood (UnityEngine.GameObject),slide_large_wood (UnityEngine.GameObject),2.9105681,1,0,0,null,0.3802645,1.093129,2.857296,0.3802645,1.094129,2.857296,0.5792104,0.9392403,2.833614,3.714466,null,,
10,spatial,TRUE,FALSE,ao-congruent,0,0,-7.495906,impact_large_metal (UnityEngine.GameObject),impact_large_metal (UnityEngine.GameObject),2.6751929,0,0,0,null,0.3790626,1.094857,2.855778,0.3790626,1.094857,2.855778,-0.02307104,0.9759111,2.875153,-7.495906,null,,
52,spatial,TRUE,FALSE,ao-congruent,0,0,9.270993,impact_large_wood (UnityEngine.GameObject),impact_large_wood (UnityEngine.GameObject),2.4322778,1,0,0,null,-0.4448558,1.09685,2.832613,-0.4448558,1.09685,2.832613,0.05023896,0.8859286,2.899868,9.270993,null,,
20,spatial,TRUE,FALSE,ao-incongruent,0,0,1.161801,slide_large_wood (UnityEngine.GameObject),impact_large_metal (UnityEngine.GameObject),3.0238966,1,1,0,null,-0.2460563,1.09907,2.859735,-0.2460563,1.09907,2.859735,-0.1834229,0.9888604,2.856043,1.161801,null,,
26,spatial,TRUE,FALSE,ao-incongruent,0,0,-5.233191,impact_large_metal (UnityEngine.GameObject),slide_large_wood (UnityEngine.GameObject),2.3412533,0,0,0,null,0.01768337,1.098939,2.87113,0.01768337,1.099939,2.87113,-0.261724,0.9940216,2.847063,-5.233191,null,,
45,spatial,TRUE,FALSE,ao-incongruent,0,0,4.743219,slide_large_metal (UnityEngine.GameObject),impact_large_wood (UnityEngine.GameObject),2.5972072,1,0,0,null,-0.3053839,1.096389,2.85806,-0.3053839,1.096389,2.85806,-0.05133502,0.9630804,2.876369,4.743219,null,,
82,spatial,TRUE,FALSE,ao-incongruent,0,0,-4.039827,slide_large_wood (UnityEngine.GameObject),impact_large_metal (UnityEngine.GameObject),2.0665427,0,0,0,null,0.2391454,1.09905,2.870671,0.2391454,1.09905,2.870671,0.02228586,0.9075575,2.895953,-4.039827,null,,
8,spatial,TRUE,FALSE,ao-congruent,10,0,-2.891576,slide_large_wood (UnityEngine.GameObject),slide_large_wood (UnityEngine.GameObject),2.7777335,0,0,0,null,-0.5948289,1.090566,2.818146,-1.094913,1.091566,2.665255,-1.249891,0.9007916,2.630378,null,null,,0.520833333
36,spatial,TRUE,FALSE,ao-congruent,10,0,-3.363364,impact_large_metal (UnityEngine.GameObject),impact_large_metal (UnityEngine.GameObject),3.5210169,0,0,0,null,-0.4587234,1.097423,2.835776,-0.9661244,1.097423,2.709266,-1.146477,0.9290796,2.672793,null,null,,
44,spatial,TRUE,FALSE,ao-congruent,10,0,0.354982,slide_large_metal (UnityEngine.GameObject),slide_large_metal (UnityEngine.GameObject),2.8098181,1,0,0,null,-0.6135669,1.095356,2.809444,-0.09453042,1.096356,2.873174,-0.1103324,1.039951,2.847465,null,null,,
56,spatial,TRUE,FALSE,ao-congruent,10,0,7.611926,impact_large_wood (UnityEngine.GameObject),impact_large_wood (UnityEngine.GameObject),3.4650638,1,1,0,null,-0.3428466,1.097747,2.845613,-0.8543535,1.097747,2.736889,-0.4576879,0.9870558,2.830623,null,null,,
58,spatial,TRUE,FALSE,ao-congruent,10,0,4.362735,impact_large_metal (UnityEngine.GameObject),impact_large_metal (UnityEngine.GameObject),2.663555,1,0,0,null,-0.4971508,1.097595,2.822002,-1.002267,1.097595,2.686657,-0.7822202,0.9685083,2.766575,null,null,,
64,spatial,TRUE,FALSE,ao-congruent,10,0,3.480147,slide_large_metal (UnityEngine.GameObject),slide_large_metal (UnityEngine.GameObject),2.2764947,1,0,0,null,0.3317011,1.095519,2.851585,-0.1911536,1.096519,2.860711,-0.005574959,0.8799565,2.905917,null,null,,
66,spatial,TRUE,FALSE,ao-congruent,10,0,-8.570635,impact_large_wood (UnityEngine.GameObject),impact_large_wood (UnityEngine.GameObject),2.7648938,0,0,0,null,-0.5878992,1.094401,2.803793,-1.087984,1.094401,2.650902,-1.535259,0.8261635,2.509294,null,null,,
77,spatial,TRUE,FALSE,ao-congruent,10,0,9.373161,slide_large_metal (UnityEngine.GameObject),slide_large_metal (UnityEngine.GameObject),2.0326262,1,1,0,null,0.08269453,1.097881,2.874051,-0.438966,1.098881,2.837573,0.06249987,0.909699,2.891496,null,null,,
84,spatial,TRUE,FALSE,ao-congruent,10,0,3.956661,impact_large_metal (UnityEngine.GameObject),impact_large_metal (UnityEngine.GameObject),2.1553998,1,0,0,null,-0.1780303,1.099003,2.87011,0.3448244,1.099003,2.860983,0.1327959,0.9190214,2.882013,null,null,,
91,spatial,TRUE,FALSE,ao-congruent,10,0,-13.74935,impact_large_wood (UnityEngine.GameObject),impact_large_wood (UnityEngine.GameObject),3.0987472,0,0,0,null,0.2852294,1.09851,2.866381,0.8002192,1.09851,2.775575,1.486427,0.9433303,2.494232,null,null,,
97,spatial,TRUE,FALSE,ao-congruent,10,0,-10.25189,slide_large_wood (UnityEngine.GameObject),slide_large_wood (UnityEngine.GameObject),2.3996055,0,0,0,null,-0.4859301,1.092138,2.835709,-0.991046,1.093138,2.700364,-1.512485,0.8676289,2.506802,null,null,,
99,spatial,TRUE,FALSE,ao-congruent,10,0,-14.32367,slide_large_wood (UnityEngine.GameObject),slide_large_wood (UnityEngine.GameObject),2.5432688,0,0,0,null,0.1298845,1.097635,2.876402,0.648921,1.098635,2.812672,1.36048,1.04668,2.523571,null,null,,
189,spatial,TRUE,FALSE,ao-congruent,10,0,-2.307408,impact_large_wood (UnityEngine.GameObject),impact_large_wood (UnityEngine.GameObject),2.210607,0,0,0,null,-0.5873748,1.087073,2.799985,-1.087459,1.087073,2.647094,-1.214881,0.952051,2.630821,null,null,,
203,spatial,TRUE,FALSE,ao-congruent,10,0,12.30495,impact_large_metal (UnityEngine.GameObject),impact_large_metal (UnityEngine.GameObject),2.0415438,1,1,0,null,0.1961446,1.083484,2.863663,0.7139898,1.083484,2.790885,0.0604728,0.9348633,2.884054,null,null,,
209,spatial,TRUE,FALSE,ao-congruent,10,0,-5.983172,slide_large_wood (UnityEngine.GameObject),slide_large_wood (UnityEngine.GameObject),1.9278536,0,0,0,null,-0.3499046,1.083676,2.843174,-0.8614115,1.084676,2.734449,-1.175415,0.9380016,2.655908,null,null,,
228,spatial,TRUE,FALSE,ao-congruent,10,0,-2.763855,slide_large_metal (UnityEngine.GameObject),slide_large_metal (UnityEngine.GameObject),2.222235,0,0,0,null,-0.5337216,1.085689,2.81195,-0.01365193,1.086689,2.866612,0.1349389,0.9069484,2.885472,null,null,,
229,spatial,TRUE,FALSE,ao-congruent,10,0,1.637216,slide_large_metal (UnityEngine.GameObject),slide_large_metal (UnityEngine.GameObject),2.0992256,1,0,0,null,0.4548319,1.085411,2.836019,-0.06738584,1.086411,2.863387,0.01837844,0.8381958,2.917364,null,null,,
232,spatial,TRUE,FALSE,ao-congruent,10,0,5.526164,impact_large_metal (UnityEngine.GameObject),impact_large_metal (UnityEngine.GameObject),2.0532297,1,0,0,null,0.3486518,1.082788,2.851947,-0.1742029,1.082788,2.861073,0.122561,0.796345,2.920195,null,null,,
246,spatial,TRUE,FALSE,ao-congruent,10,0,-9.269828,slide_large_metal (UnityEngine.GameObject),slide_large_metal (UnityEngine.GameObject),2.1343219,0,0,0,null,-0.2857364,1.080449,2.852399,-0.799063,1.081449,2.752618,-1.281149,0.8919843,2.617331,null,null,,
254,spatial,TRUE,FALSE,ao-congruent,10,0,-6.064754,impact_large_wood (UnityEngine.GameObject),impact_large_wood (UnityEngine.GameObject),2.6761725,0,0,0,null,-0.4314356,1.082112,2.833654,-0.9388366,1.082112,2.707145,-1.266725,0.8303431,2.645843,null,null,,
262,spatial,TRUE,FALSE,ao-congruent,10,0,-11.58283,slide_large_wood (UnityEngine.GameObject),slide_large_wood (UnityEngine.GameObject),1.7009376,0,0,0,null,-0.1228794,1.077412,2.868209,-0.6407246,1.078412,2.79543,-1.241353,0.9169236,2.629243,null,null,,
264,spatial,TRUE,FALSE,ao-congruent,10,0,1.798092,slide_large_wood (UnityEngine.GameObject),slide_large_wood (UnityEngine.GameObject),1.7766838,1,0,0,null,0.3471315,1.079568,2.852024,-0.1757233,1.080568,2.861151,-0.07963726,0.9954761,2.863862,null,null,,
265,spatial,TRUE,FALSE,ao-congruent,10,0,3.991941,impact_large_metal (UnityEngine.GameObject),impact_large_metal (UnityEngine.GameObject),3.3760879,1,0,0,null,-0.2772381,1.079557,2.853356,0.2456167,1.079557,2.862483,0.03365698,0.8096532,2.924575,null,null,,
274,spatial,TRUE,FALSE,ao-congruent,10,0,-6.709901,impact_large_wood (UnityEngine.GameObject),impact_large_wood (UnityEngine.GameObject),2.5548659,0,0,0,null,-0.4772019,1.078019,2.825597,-0.9823178,1.078019,2.690251,-1.336592,0.8600498,2.599775,null,null,,
1,spatial,TRUE,FALSE,ao-incongruent,10,0,9.264993,slide_large_wood (UnityEngine.GameObject),impact_large_metal (UnityEngine.GameObject),3.4677752,1,1,0,null,0.2782438,1.087025,2.86321,-0.2446906,1.087025,2.86321,0.252007,0.9274842,2.868159,null,null,,
2,spatial,TRUE,FALSE,ao-incongruent,10,0,-12.05194,slide_large_metal (UnityEngine.GameObject),impact_large_wood (UnityEngine.GameObject),3.1980687,0,0,0,null,0.5669072,1.082733,2.82948,1.069584,1.082733,2.68534,1.630681,1.106568,2.364234,null,null,,
15,spatial,TRUE,FALSE,ao-incongruent,10,0,8.052495,impact_large_metal (UnityEngine.GameObject),slide_large_wood (UnityEngine.GameObject),2.276956,1,1,0,null,0.1263868,1.096353,2.872264,-0.395831,1.097353,2.844895,0.03497192,0.8521685,2.911554,null,null,,
19,spatial,TRUE,FALSE,ao-incongruent,10,0,0.2654082,slide_large_wood (UnityEngine.GameObject),impact_large_metal (UnityEngine.GameObject),2.9883238,1,0,0,null,-0.4053521,1.098346,2.842309,-0.9148838,1.098346,2.724674,-0.9072787,0.9259526,2.743532,null,null,,
22,spatial,TRUE,FALSE,ao-incongruent,10,0,7.153629,slide_large_wood (UnityEngine.GameObject),impact_large_metal (UnityEngine.GameObject),2.4900242,1,1,0,null,0.1747725,1.099717,2.866244,-0.3478433,1.099717,2.847994,0.03496313,0.9133912,2.892983,null,null,,
40,spatial,TRUE,FALSE,ao-incongruent,10,0,8.8831,slide_large_wood (UnityEngine.GameObject),impact_large_metal (UnityEngine.GameObject),2.6993716,1,1,0,null,0.05915781,1.097883,2.871336,-0.4625027,1.097883,2.834858,0.01193126,0.8779026,2.90593,null,null,,
43,spatial,TRUE,FALSE,ao-incongruent,10,0,-0.7509531,impact_large_metal (UnityEngine.GameObject),slide_large_wood (UnityEngine.GameObject),2.2320086,0,0,0,null,-0.6126606,1.095311,2.80794,-1.112745,1.096311,2.655049,-1.147522,1.044107,2.63392,null,null,,
50,spatial,TRUE,FALSE,ao-incongruent,10,0,-3.027374,slide_large_wood (UnityEngine.GameObject),impact_large_metal (UnityEngine.GameObject),2.7646117,0,0,0,null,-0.5961534,1.095337,2.806383,-1.096238,1.095337,2.653492,-1.264037,0.8796008,2.630363,null,null,,
53,spatial,TRUE,FALSE,ao-incongruent,10,0,-9.859395,slide_large_metal (UnityEngine.GameObject),impact_large_wood (UnityEngine.GameObject),3.0422361,0,0,0,null,0.0829485,1.095053,2.875064,0.6030182,1.095053,2.820403,1.116617,0.9303989,2.681059,null,null,,
54,spatial,TRUE,FALSE,ao-incongruent,10,0,9.613414,impact_large_metal (UnityEngine.GameObject),slide_large_wood (UnityEngine.GameObject),2.1652036,1,1,0,null,-0.02401594,1.095194,2.871153,0.4976446,1.096194,2.834674,-0.0165449,0.9164368,2.893812,null,null,,
71,spatial,TRUE,FALSE,ao-incongruent,10,0,-5.534881,slide_large_wood (UnityEngine.GameObject),impact_large_metal (UnityEngine.GameObject),2.55454,0,0,0,null,-0.4979696,1.094373,2.822785,-1.003085,1.094373,2.68744,-1.277801,1.020447,2.575079,null,null,,
92,spatial,TRUE,FALSE,ao-incongruent,10,0,6.157465,slide_large_metal (UnityEngine.GameObject),impact_large_wood (UnityEngine.GameObject),1.8201157,1,0,0,null,0.1861761,1.097982,2.872436,-0.3364397,1.097982,2.854185,-0.006704012,0.9452538,2.886003,null,null,,
192,spatial,TRUE,FALSE,ao-incongruent,10,0,-7.084767,slide_large_metal (UnityEngine.GameObject),impact_large_wood (UnityEngine.GameObject),2.8084143,0,0,0,null,0.4556614,1.085718,2.837868,0.965193,1.085718,2.720234,1.316234,0.9729267,2.571551,null,null,,
211,spatial,TRUE,FALSE,ao-incongruent,10,0,-6.025159,slide_large_wood (UnityEngine.GameObject),impact_large_metal (UnityEngine.GameObject),2.1430143,0,0,0,null,-0.4930296,1.078131,2.830319,-0.9981455,1.078131,2.694974,-1.308797,0.9110218,2.596609,null,null,,
214,spatial,TRUE,FALSE,ao-incongruent,10,0,17.68021,impact_large_metal (UnityEngine.GameObject),slide_large_wood (UnityEngine.GameObject),1.9762658,1,0,0,null,-0.2301021,1.083774,2.857121,-0.745092,1.084774,2.766315,0.1937771,0.8381667,2.900766,null,null,,
224,spatial,TRUE,FALSE,ao-incongruent,10,0,3.368309,slide_large_metal (UnityEngine.GameObject),impact_large_wood (UnityEngine.GameObject),1.9862965,1,0,0,null,0.3999797,1.083457,2.844082,-0.1226361,1.083457,2.862332,0.05693511,0.7798587,2.93141,null,null,,
236,spatial,TRUE,FALSE,ao-incongruent,10,0,0.7430948,impact_large_metal (UnityEngine.GameObject),slide_large_wood (UnityEngine.GameObject),1.6874463,1,0,0,null,0.5088186,1.085935,2.829286,-0.01284198,1.086935,2.865764,0.02502966,0.884972,2.902545,null,null,,
243,spatial,TRUE,FALSE,ao-incongruent,10,0,5.664585,slide_large_wood (UnityEngine.GameObject),impact_large_metal (UnityEngine.GameObject),2.4764616,1,0,0,null,-0.06983301,1.083276,2.86903,-0.5888695,1.083276,2.8053,-0.293197,0.8660488,2.882904,null,null,,
250,spatial,TRUE,FALSE,ao-incongruent,10,0,-7.271086,slide_large_metal (UnityEngine.GameObject),impact_large_wood (UnityEngine.GameObject),2.0090398,0,0,0,null,-0.4890051,1.083216,2.824657,-0.994121,1.083216,2.689312,-1.369407,0.8965353,2.570424,null,null,,
253,spatial,TRUE,FALSE,ao-incongruent,10,0,-5.390961,slide_large_wood (UnityEngine.GameObject),impact_large_metal (UnityEngine.GameObject),2.3110792,0,0,0,null,0.5690186,1.085099,2.821792,1.074134,1.085099,2.686447,1.348951,0.8808978,2.586243,null,null,,
256,spatial,TRUE,FALSE,ao-incongruent,10,0,4.423414,slide_large_wood (UnityEngine.GameObject),impact_large_metal (UnityEngine.GameObject),3.1431209,1,0,0,null,-0.07081372,1.084002,2.866672,-0.5898502,1.084002,2.802943,-0.3618924,0.8581883,2.878784,null,null,,
258,spatial,TRUE,FALSE,ao-incongruent,10,0,4.171947,slide_large_wood (UnityEngine.GameObject),impact_large_metal (UnityEngine.GameObject),3.2066242,1,0,0,null,-0.0169377,1.082337,2.868698,-0.5370074,1.082337,2.814036,-0.3202713,0.8767708,2.877088,null,null,,
259,spatial,TRUE,FALSE,ao-incongruent,10,0,3.587141,slide_large_wood (UnityEngine.GameObject),impact_large_metal (UnityEngine.GameObject),2.1765603,1,0,0,null,0.4514799,1.082637,2.839316,-0.07073781,1.082637,2.866684,0.122034,0.8693819,2.89809,null,null,,
266,spatial,TRUE,FALSE,ao-incongruent,10,0,-0.8163731,impact_large_metal (UnityEngine.GameObject),slide_large_wood (UnityEngine.GameObject),1.5867599,0,0,0,null,0.5625613,1.077333,2.826665,0.04161679,1.078333,2.872242,0.005553128,0.7555588,2.943646,null,null,,
3,spatial,TRUE,FALSE,ao-congruent,12,0,-2.414921,slide_large_metal (UnityEngine.GameObject),slide_large_metal (UnityEngine.GameObject),2.7881959,0,0,0,null,0.5215311,1.088997,2.846964,1.124406,1.089997,2.674092,1.24192,0.9512236,2.617165,null,null,,0.75
6,spatial,TRUE,FALSE,ao-congruent,12,0,6.12612,impact_large_wood (UnityEngine.GameObject),impact_large_wood (UnityEngine.GameObject),2.6752644,1,0,0,null,0.4665977,1.094729,2.849445,-0.1597136,1.094729,2.882268,0.1719183,0.7832538,2.919493,null,null,,
11,spatial,TRUE,FALSE,ao-congruent,12,0,6.608298,impact_large_metal (UnityEngine.GameObject),impact_large_metal (UnityEngine.GameObject),2.8000382,1,0,0,null,0.2794983,1.095797,2.864979,-0.3475769,1.095797,2.854033,0.006301925,0.9178174,2.894354,null,null,,
17,spatial,TRUE,FALSE,ao-congruent,12,0,4.4719,impact_large_metal (UnityEngine.GameObject),impact_large_metal (UnityEngine.GameObject),3.1529531,1,0,0,null,-0.190707,1.098433,2.864924,-0.8083497,1.098433,2.756016,-0.5773895,0.9754436,2.822811,null,null,,
23,spatial,TRUE,FALSE,ao-congruent,12,0,5.330574,impact_large_wood (UnityEngine.GameObject),impact_large_wood (UnityEngine.GameObject),2.1877513,1,0,0,null,0.2246718,1.100342,2.862076,0.8423144,1.100342,2.753169,0.5713947,0.8675387,2.856104,null,null,,
24,spatial,TRUE,FALSE,ao-congruent,12,0,-0.9926839,slide_large_metal (UnityEngine.GameObject),slide_large_metal (UnityEngine.GameObject),2.220737,0,0,0,null,-0.6091626,1.09652,2.808301,-1.205637,1.09752,2.614495,-1.255813,0.993239,2.59569,null,null,,
41,spatial,TRUE,FALSE,ao-congruent,12,0,3.545195,slide_large_wood (UnityEngine.GameObject),slide_large_wood (UnityEngine.GameObject),2.2666816,1,0,0,null,-0.4094274,1.095548,2.845556,0.2173613,1.096548,2.867444,0.02805948,0.8535495,2.91179,null,null,,
49,spatial,TRUE,FALSE,ao-congruent,12,0,13.20844,impact_large_metal (UnityEngine.GameObject),impact_large_metal (UnityEngine.GameObject),2.6432672,1,1,0,null,-0.1279848,1.096019,2.866786,-0.7474341,1.096019,2.768675,-0.04966214,0.8584822,2.908257,null,null,,
60,spatial,TRUE,FALSE,ao-congruent,12,0,2.792671,slide_large_wood (UnityEngine.GameObject),slide_large_wood (UnityEngine.GameObject),1.865312,1,0,0,null,-0.1847662,1.09578,2.86155,-0.8024088,1.09678,2.752643,-0.6633973,0.9298052,2.813434,null,null,,
62,spatial,TRUE,FALSE,ao-congruent,12,0,4.230359,slide_large_metal (UnityEngine.GameObject),slide_large_metal (UnityEngine.GameObject),2.041812,1,0,0,null,-0.2372222,1.097092,2.855821,0.389853,1.098092,2.844876,0.1657323,0.8755994,2.892067,null,null,,
85,spatial,TRUE,FALSE,ao-congruent,12,0,6.140024,slide_large_wood (UnityEngine.GameObject),slide_large_wood (UnityEngine.GameObject),2.6668233,1,0,0,null,0.2427457,1.096372,2.86991,-0.384043,1.097372,2.848022,-0.05643387,0.8769593,2.902011,null,null,,
96,spatial,TRUE,FALSE,ao-congruent,12,0,-18.15625,impact_large_wood (UnityEngine.GameObject),impact_large_wood (UnityEngine.GameObject),2.9102673,0,0,0,null,-0.1329311,1.098886,2.875385,0.4933801,1.098886,2.842561,1.4091,1.007259,2.512082,null,null,,
194,spatial,TRUE,FALSE,ao-congruent,12,0,-4.91203,impact_large_wood (UnityEngine.GameObject),impact_large_wood (UnityEngine.GameObject),2.2663793,0,0,0,null,-0.3802978,1.084466,2.836975,-0.9888389,1.084466,2.685249,-1.24421,0.9595924,2.613169,null,null,,
201,spatial,TRUE,FALSE,ao-congruent,12,0,-6.459984,slide_large_metal (UnityEngine.GameObject),slide_large_metal (UnityEngine.GameObject),2.3549145,0,0,0,null,0.5978397,1.082893,2.811625,1.197606,1.083893,2.628258,1.51537,0.9319284,2.483264,null,null,,
202,spatial,TRUE,FALSE,ao-congruent,12,0,2.545606,slide_large_wood (UnityEngine.GameObject),slide_large_wood (UnityEngine.GameObject),2.1443979,1,0,0,null,0.4466609,1.082754,2.837435,-0.1801278,1.083754,2.859323,-0.04523342,0.8965283,2.897135,null,null,,
206,spatial,TRUE,FALSE,ao-congruent,12,0,1.148247,slide_large_metal (UnityEngine.GameObject),slide_large_metal (UnityEngine.GameObject),2.3772101,1,0,0,null,-0.07771304,1.081005,2.869497,-0.6987802,1.082006,2.782212,-0.6420689,0.9634495,2.80904,null,null,,
210,spatial,TRUE,FALSE,ao-congruent,12,0,14.46641,impact_large_metal (UnityEngine.GameObject),impact_large_metal (UnityEngine.GameObject),2.0544784,1,1,0,null,0.1749248,1.082652,2.862437,0.7943742,1.082652,2.764326,0.02996179,0.8221372,2.921139,null,null,,
216,spatial,TRUE,FALSE,ao-congruent,12,0,9.708266,impact_large_wood (UnityEngine.GameObject),impact_large_wood (UnityEngine.GameObject),1.9329562,1,1,0,null,0.2401061,1.083136,2.863439,-0.3866826,1.083136,2.841551,0.1327795,0.8454185,2.904341,null,null,,
221,spatial,TRUE,FALSE,ao-congruent,12,0,3.705123,slide_large_wood (UnityEngine.GameObject),slide_large_wood (UnityEngine.GameObject),1.6655423,1,0,0,null,0.5526794,1.082479,2.821431,-0.07296365,1.083479,2.86518,0.1263734,0.7931376,2.920808,null,null,,
237,spatial,TRUE,FALSE,ao-congruent,12,0,5.540472,slide_large_wood (UnityEngine.GameObject),slide_large_wood (UnityEngine.GameObject),1.9663091,1,0,0,null,0.4008814,1.08177,2.844805,-0.2261939,1.08277,2.855751,0.06999978,0.7803914,2.930011,null,null,,
244,spatial,TRUE,FALSE,ao-congruent,12,0,-8.407819,slide_large_metal (UnityEngine.GameObject),slide_large_metal (UnityEngine.GameObject),1.8542127,0,0,0,null,-0.178292,1.082211,2.862992,-0.7959346,1.083211,2.754085,-1.241962,0.8466772,2.652975,null,null,,
248,spatial,TRUE,FALSE,ao-congruent,12,0,5.070993,impact_large_wood (UnityEngine.GameObject),impact_large_wood (UnityEngine.GameObject),1.9235154,1,0,0,null,0.4557542,1.080722,2.841694,-0.1710346,1.080722,2.863582,0.1010743,0.8050409,2.919592,null,null,,
273,spatial,TRUE,FALSE,ao-congruent,12,0,20.23886,impact_large_metal (UnityEngine.GameObject),impact_large_metal (UnityEngine.GameObject),1.7454529,1,0,0,null,0.4603367,1.078957,2.841959,1.068878,1.078957,2.690233,0.00340662,0.8302125,2.921203,null,null,,
275,spatial,TRUE,FALSE,ao-congruent,12,0,9.438005,impact_large_metal (UnityEngine.GameObject),impact_large_metal (UnityEngine.GameObject),2.5961443,1,1,0,null,0.2527384,1.077664,2.865136,-0.3740504,1.077664,2.843248,0.1304444,0.881688,2.89356,null,null,,
13,spatial,TRUE,FALSE,ao-incongruent,12,0,0.9773876,slide_large_metal (UnityEngine.GameObject),impact_large_wood (UnityEngine.GameObject),3.1422416,1,0,0,null,0.01443789,1.097261,2.874369,0.638173,1.097261,2.808812,0.5862473,0.9887577,2.817308,null,null,,
34,spatial,TRUE,FALSE,ao-incongruent,12,0,5.656587,slide_large_wood (UnityEngine.GameObject),impact_large_metal (UnityEngine.GameObject),2.8897274,1,0,0,null,0.01229967,1.099616,2.870236,-0.6114354,1.099616,2.804679,-0.3120194,0.9575421,2.853367,null,null,,
48,spatial,TRUE,FALSE,ao-incongruent,12,0,18.46944,impact_large_metal (UnityEngine.GameObject),slide_large_wood (UnityEngine.GameObject),2.6969632,1,0,0,null,0.3944119,1.095139,2.84811,-0.2326634,1.096139,2.859056,0.7520793,0.9464245,2.782305,null,null,,
51,spatial,TRUE,FALSE,ao-incongruent,12,0,6.632558,slide_large_wood (UnityEngine.GameObject),impact_large_metal (UnityEngine.GameObject),2.854466,1,0,0,null,0.06467533,1.096528,2.869993,-0.5601088,1.096528,2.815331,-0.2074877,0.9716739,2.858978,null,null,,
55,spatial,TRUE,FALSE,ao-incongruent,12,0,5.248707,slide_large_metal (UnityEngine.GameObject),impact_large_wood (UnityEngine.GameObject),3.411958,1,0,0,null,0.02381675,1.097343,2.868553,-0.5999183,1.097343,2.802996,-0.3215337,0.9987963,2.839952,null,null,,
61,spatial,TRUE,FALSE,ao-incongruent,12,0,16.44088,impact_large_metal (UnityEngine.GameObject),slide_large_wood (UnityEngine.GameObject),2.3331771,1,0,0,null,0.3876513,1.096889,2.845389,-0.239424,1.097889,2.856334,0.6395506,0.9584187,2.811335,null,null,,
70,spatial,TRUE,FALSE,ao-incongruent,12,0,12.90754,slide_large_wood (UnityEngine.GameObject),impact_large_metal (UnityEngine.GameObject),2.7755734,1,1,0,null,-0.1331392,1.095707,2.861817,-0.7525886,1.095707,2.763705,-0.07098887,0.9547541,2.877034,null,null,,
80,spatial,TRUE,FALSE,ao-incongruent,12,0,-11.1726,slide_large_wood (UnityEngine.GameObject),impact_large_metal (UnityEngine.GameObject),2.4988708,0,0,0,null,-0.0712248,1.100061,2.875385,-0.692292,1.100061,2.7881,-1.262971,0.9689497,2.600326,null,null,,
83,spatial,TRUE,FALSE,ao-incongruent,12,0,-4.223965,slide_large_metal (UnityEngine.GameObject),impact_large_wood (UnityEngine.GameObject),2.4552978,0,0,0,null,-0.4934764,1.099311,2.831292,-1.096352,1.099311,2.65842,-1.303029,1.012988,2.564668,null,null,,
87,spatial,TRUE,FALSE,ao-incongruent,12,0,9.335068,slide_large_wood (UnityEngine.GameObject),impact_large_metal (UnityEngine.GameObject),2.2438933,1,1,0,null,0.1344507,1.097569,2.875959,-0.4911923,1.097569,2.83221,0.007504495,0.9035425,2.898571,null,null,,
93,spatial,TRUE,FALSE,ao-incongruent,12,0,9.909569,impact_large_metal (UnityEngine.GameObject),slide_large_wood (UnityEngine.GameObject),1.9214623,1,1,0,null,0.2396677,1.095801,2.869747,-0.3871211,1.096801,2.847859,0.1450026,0.8352258,2.906276,null,null,,
94,spatial,TRUE,FALSE,ao-incongruent,12,0,7.477743,slide_large_wood (UnityEngine.GameObject),impact_large_metal (UnityEngine.GameObject),2.2296328,1,0,0,null,0.2937168,1.098828,2.863096,-0.3333584,1.098828,2.852151,0.0673507,0.936336,2.882957,null,null,,
187,spatial,TRUE,FALSE,ao-incongruent,12,0,4.020975,slide_large_wood (UnityEngine.GameObject),impact_large_metal (UnityEngine.GameObject),2.0442365,1,0,0,null,-0.22394,1.085497,2.859787,0.4031352,1.085497,2.848841,0.192229,0.7893593,2.915718,null,null,,
195,spatial,TRUE,FALSE,ao-incongruent,12,0,18.7233,impact_large_metal (UnityEngine.GameObject),slide_large_wood (UnityEngine.GameObject),1.8553319,1,0,0,null,-0.2232124,1.086439,2.850186,-0.8388603,1.087439,2.730517,0.1487278,0.9214247,2.879776,null,null,,
207,spatial,TRUE,FALSE,ao-incongruent,12,0,5.571548,slide_large_wood (UnityEngine.GameObject),impact_large_metal (UnityEngine.GameObject),2.0428279,1,0,0,null,0.4945002,1.082372,2.833346,-0.1318111,1.082372,2.86617,0.1680227,0.831889,2.905109,null,null,,
212,spatial,TRUE,FALSE,ao-incongruent,12,0,9.587449,impact_large_metal (UnityEngine.GameObject),slide_large_wood (UnityEngine.GameObject),2.0100004,1,1,0,null,0.08575754,1.084311,2.869004,-0.5390267,1.085311,2.814343,-0.03069751,0.8528193,2.911771,null,null,,
217,spatial,TRUE,FALSE,ao-incongruent,12,0,10.52889,slide_large_metal (UnityEngine.GameObject),impact_large_wood (UnityEngine.GameObject),1.9347383,1,1,0,null,0.08335823,1.081578,2.872176,-0.5414259,1.081578,2.817514,0.01850886,0.87483,2.906239,null,null,,
222,spatial,TRUE,FALSE,ao-incongruent,12,0,-10.4624,slide_large_wood (UnityEngine.GameObject),impact_large_metal (UnityEngine.GameObject),2.2537645,0,0,0,null,0.6127799,1.083808,2.812871,1.212546,1.083808,2.629504,1.723016,0.8891485,2.378857,null,null,,
226,spatial,TRUE,FALSE,ao-incongruent,12,0,-4.217097,slide_large_metal (UnityEngine.GameObject),impact_large_wood (UnityEngine.GameObject),2.2875594,0,0,0,null,-0.595175,1.081445,2.803718,-1.19165,1.081445,2.609912,-1.394972,1.02968,2.511713,null,null,,
230,spatial,TRUE,FALSE,ao-incongruent,12,0,-5.626189,slide_large_wood (UnityEngine.GameObject),impact_large_metal (UnityEngine.GameObject),2.3006117,0,0,0,null,0.354105,1.085022,2.850081,0.9675705,1.085022,2.719685,1.261553,0.8703137,2.634773,null,null,,
233,spatial,TRUE,FALSE,ao-incongruent,12,0,9.216333,slide_large_metal (UnityEngine.GameObject),impact_large_wood (UnityEngine.GameObject),2.2759218,1,1,0,null,0.1442564,1.081119,2.865646,-0.4813866,1.081119,2.821896,0.007609408,0.8112861,2.926547,null,null,,
268,spatial,TRUE,FALSE,ao-incongruent,12,0,19.78522,impact_large_metal (UnityEngine.GameObject),slide_large_wood (UnityEngine.GameObject),2.7205633,1,0,0,null,-0.3776806,1.07858,2.841475,-0.9862217,1.07958,2.689749,0.05079412,0.8611326,2.907337,null,null,,
269,spatial,TRUE,FALSE,ao-incongruent,12,0,3.488632,slide_large_wood (UnityEngine.GameObject),impact_large_metal (UnityEngine.GameObject),2.0662692,1,0,0,null,-0.06516691,1.078388,2.870202,-0.6862341,1.078388,2.782916,-0.5076165,0.9358351,2.841433,null,null,,
276,spatial,TRUE,FALSE,ao-incongruent,12,0,-4.82093,slide_large_wood (UnityEngine.GameObject),impact_large_metal (UnityEngine.GameObject),2.1213214,0,0,0,null,0.6214871,1.079731,2.817037,1.221254,1.079731,2.63367,1.504237,0.5450722,2.60978,null,null,,
16,spatial,TRUE,FALSE,ao-congruent,14,0,5.756124,slide_large_wood (UnityEngine.GameObject),slide_large_wood (UnityEngine.GameObject),2.2868176,1,0,0,null,0.2272957,1.096311,2.866913,-0.5029182,1.097311,2.828644,-0.1981611,0.8772097,2.888516,null,null,,0.583333333
18,spatial,TRUE,FALSE,ao-congruent,14,0,3.209125,slide_large_metal (UnityEngine.GameObject),slide_large_metal (UnityEngine.GameObject),2.8875096,1,0,0,null,-0.499287,1.097433,2.826902,-1.198552,1.098433,2.613116,-1.045131,0.9568408,2.693588,null,null,,
21,spatial,TRUE,FALSE,ao-congruent,14,0,9.117123,impact_large_wood (UnityEngine.GameObject),impact_large_wood (UnityEngine.GameObject),2.8876058,1,0,0,null,-0.349789,1.099725,2.847853,0.381427,1.099725,2.847853,-0.1070581,0.9610062,2.871722,null,null,,
27,spatial,TRUE,FALSE,ao-congruent,14,0,5.603886,impact_large_wood (UnityEngine.GameObject),impact_large_wood (UnityEngine.GameObject),2.4321089,1,0,0,null,-0.1402745,1.100261,2.867037,-0.8603818,1.100261,2.740063,-0.5734457,0.9366795,2.834944,null,null,,
37,spatial,TRUE,FALSE,ao-congruent,14,0,5.009185,slide_large_wood (UnityEngine.GameObject),slide_large_wood (UnityEngine.GameObject),2.3766817,1,0,0,null,0.3211964,1.097629,2.854904,-0.4099083,1.098629,2.842142,-0.1440494,0.8761511,2.893961,null,null,,
73,spatial,TRUE,FALSE,ao-congruent,14,0,2.048895,impact_large_metal (UnityEngine.GameObject),impact_large_metal (UnityEngine.GameObject),3.6874764,1,0,0,null,-0.4368602,1.093608,2.833294,-1.13975,1.093608,2.631744,-1.054785,0.8867528,2.712884,null,null,,
79,spatial,TRUE,FALSE,ao-congruent,14,0,-7.410607,slide_large_wood (UnityEngine.GameObject),slide_large_wood (UnityEngine.GameObject),2.6106247,0,0,0,null,-0.1273209,1.097735,2.872405,-0.8474281,1.098735,2.745431,-1.223118,0.9925499,2.612725,null,null,,
81,spatial,TRUE,FALSE,ao-congruent,14,0,17.85395,impact_large_wood (UnityEngine.GameObject),impact_large_wood (UnityEngine.GameObject),2.5982343,1,0,0,null,0.242292,1.098663,2.870997,0.9600736,1.098663,2.731474,0.01285729,0.9390546,2.887291,null,null,,
89,spatial,TRUE,FALSE,ao-congruent,14,0,11.20678,impact_large_metal (UnityEngine.GameObject),impact_large_metal (UnityEngine.GameObject),2.0336117,1,1,0,null,0.1852086,1.097975,2.873044,-0.5442263,1.097975,2.822037,0.05441871,0.9410892,2.882739,null,null,,
90,spatial,TRUE,FALSE,ao-congruent,14,0,-5.43902,slide_large_metal (UnityEngine.GameObject),slide_large_metal (UnityEngine.GameObject),2.4424725,0,0,0,null,-0.2332808,1.096766,2.865639,-0.948518,1.097766,2.713611,-1.224238,0.9840977,2.615043,null,null,,
100,spatial,TRUE,FALSE,ao-congruent,14,0,15.11543,impact_large_metal (UnityEngine.GameObject),impact_large_metal (UnityEngine.GameObject),2.4886776,1,1,0,null,-0.18476,1.099639,2.867208,-0.9025416,1.099639,2.727685,-0.1073562,0.8913087,2.892837,null,null,,
101,spatial,TRUE,FALSE,ao-congruent,14,0,7.166972,slide_large_metal (UnityEngine.GameObject),slide_large_metal (UnityEngine.GameObject),2.1892129,1,0,0,null,0.2920328,1.096074,2.864745,-0.4387378,1.097074,2.839226,-0.05735835,0.8238873,2.918023,null,null,,
188,spatial,TRUE,FALSE,ao-congruent,14,0,-7.143393,slide_large_metal (UnityEngine.GameObject),slide_large_metal (UnityEngine.GameObject),1.8541965,0,0,0,null,-0.1757315,1.088091,2.855895,-0.8935131,1.089091,2.716373,-1.266659,0.9181686,2.615814,null,null,,
197,spatial,TRUE,FALSE,ao-congruent,14,0,2.675837,impact_large_metal (UnityEngine.GameObject),impact_large_metal (UnityEngine.GameObject),2.0424044,1,0,0,null,-0.4862841,1.085612,2.817067,0.2439298,1.085612,2.855336,0.1037279,0.8377656,2.909413,null,null,,
200,spatial,TRUE,FALSE,ao-congruent,14,0,-7.149843,slide_large_metal (UnityEngine.GameObject),slide_large_metal (UnityEngine.GameObject),2.5766644,0,0,0,null,0.3855246,1.083076,2.845893,1.09502,1.084076,2.668996,1.463573,0.8378647,2.542077,null,null,,
218,spatial,TRUE,FALSE,ao-congruent,14,0,-11.80423,impact_large_wood (UnityEngine.GameObject),impact_large_wood (UnityEngine.GameObject),2.177366,0,0,0,null,-0.1783886,1.082707,2.861954,-0.8961702,1.082707,2.722431,-1.487181,0.9494091,2.49181,null,null,,
219,spatial,TRUE,FALSE,ao-congruent,14,0,-7.19012,slide_large_wood (UnityEngine.GameObject),slide_large_wood (UnityEngine.GameObject),1.9132452,0,0,0,null,-0.3377687,1.084358,2.841197,-1.047265,1.085358,2.6643,-1.410021,0.9560651,2.529178,null,null,,
240,spatial,TRUE,FALSE,ao-congruent,14,0,-7.687634,slide_large_wood (UnityEngine.GameObject),slide_large_wood (UnityEngine.GameObject),2.2661393,0,0,0,null,0.6118914,1.084134,2.817422,1.307319,1.085135,2.591464,1.696625,0.8197261,2.426789,null,null,,
241,spatial,TRUE,FALSE,ao-congruent,14,0,-7.142376,impact_large_wood (UnityEngine.GameObject),impact_large_wood (UnityEngine.GameObject),2.1947039,0,0,0,null,-0.07106148,1.085026,2.868588,-0.7932751,1.085026,2.754201,-1.180715,0.8223068,2.692788,null,null,,
245,spatial,TRUE,FALSE,ao-congruent,14,0,5.986939,slide_large_metal (UnityEngine.GameObject),slide_large_metal (UnityEngine.GameObject),1.7764697,1,0,0,null,-0.02001426,1.081615,2.869535,0.7071961,1.082615,2.793102,0.3935884,0.884627,2.867755,null,null,,
252,spatial,TRUE,FALSE,ao-congruent,14,0,6.624836,impact_large_metal (UnityEngine.GameObject),impact_large_metal (UnityEngine.GameObject),2.5658871,1,0,0,null,-0.3864344,1.084368,2.83966,0.3446703,1.084368,2.852422,-0.008139351,0.7210922,2.953865,null,null,,
267,spatial,TRUE,FALSE,ao-congruent,14,0,-3.523701,slide_large_wood (UnityEngine.GameObject),slide_large_wood (UnityEngine.GameObject),2.0113041,0,0,0,null,-0.4283549,1.07826,2.833925,-1.131245,1.07926,2.632375,-1.320217,0.9119992,2.590406,null,null,,
277,spatial,TRUE,FALSE,ao-congruent,14,0,7.906042,impact_large_metal (UnityEngine.GameObject),impact_large_metal (UnityEngine.GameObject),3.5851821,1,0,0,null,0.345343,1.080423,2.853333,-0.3857618,1.080423,2.840572,0.03584981,0.9572647,2.879591,null,null,,
278,spatial,TRUE,FALSE,ao-congruent,14,0,9.587326,impact_large_wood (UnityEngine.GameObject),impact_large_wood (UnityEngine.GameObject),2.3427093,1,0,0,null,0.2918307,1.07923,2.86057,-0.4389399,1.07923,2.835051,0.07247124,0.9367809,2.882337,null,null,,
4,spatial,TRUE,FALSE,ao-incongruent,14,0,3.37719,slide_large_wood (UnityEngine.GameObject),impact_large_metal (UnityEngine.GameObject),2.6990193,1,0,0,null,-0.3132392,1.090772,2.874834,0.4178656,1.090772,2.862072,0.235405,0.9446469,2.864525,null,null,,
14,spatial,TRUE,FALSE,ao-incongruent,14,0,6.480441,slide_large_wood (UnityEngine.GameObject),impact_large_metal (UnityEngine.GameObject),2.610503,1,0,0,null,-0.4005069,1.09707,2.844601,-1.106807,1.09707,2.655348,-0.778872,0.9529193,2.772469,null,null,,
25,spatial,TRUE,FALSE,ao-incongruent,14,0,-0.1887116,slide_large_metal (UnityEngine.GameObject),impact_large_wood (UnityEngine.GameObject),2.4307897,0,0,0,null,-0.4508018,1.099586,2.833642,-1.153692,1.099586,2.632092,-1.168326,0.9701279,2.648554,null,null,,
28,spatial,TRUE,FALSE,ao-incongruent,14,0,5.409431,slide_large_metal (UnityEngine.GameObject),impact_large_wood (UnityEngine.GameObject),3.1316708,1,0,0,null,0.2774739,1.10032,2.858595,-0.4532967,1.10032,2.833076,-0.1667108,0.8845623,2.889264,null,null,,
29,spatial,TRUE,FALSE,ao-incongruent,14,0,3.026533,slide_large_metal (UnityEngine.GameObject),impact_large_wood (UnityEngine.GameObject),2.8214666,1,0,0,null,-0.4543066,1.100477,2.832667,-1.157197,1.100477,2.631117,-1.015751,0.9134714,2.715837,null,null,,
30,spatial,TRUE,FALSE,ao-incongruent,14,0,-0.8130105,impact_large_metal (UnityEngine.GameObject),slide_large_wood (UnityEngine.GameObject),4.7117547,0,0,0,null,0.5603172,1.098866,2.82272,1.255745,1.099866,2.596762,1.300843,0.9433692,2.589576,null,null,,
38,spatial,TRUE,FALSE,ao-incongruent,14,0,-2.751646,slide_large_wood (UnityEngine.GameObject),impact_large_metal (UnityEngine.GameObject),2.8429466,0,0,0,null,0.05635805,1.09747,2.872091,0.780458,1.09747,2.770325,0.918599,0.9985999,2.717287,null,null,,
39,spatial,TRUE,FALSE,ao-incongruent,14,0,-5.774244,slide_large_wood (UnityEngine.GameObject),impact_large_metal (UnityEngine.GameObject),2.5294403,0,0,0,null,-0.3591554,1.095685,2.852817,-1.068651,1.095685,2.67592,-1.348685,1.010534,2.54205,null,null,,
63,spatial,TRUE,FALSE,ao-incongruent,14,0,7.059525,impact_large_metal (UnityEngine.GameObject),slide_large_wood (UnityEngine.GameObject),1.9548824,1,0,0,null,-0.3928604,1.096507,2.836192,-1.099161,1.097507,2.646939,-0.7487051,0.9105869,2.794621,null,null,,
65,spatial,TRUE,FALSE,ao-incongruent,14,0,-6.95838,slide_large_wood (UnityEngine.GameObject),impact_large_metal (UnityEngine.GameObject),4.0114348,0,0,0,null,0.6084366,1.09703,2.812627,1.303864,1.09703,2.586669,1.640287,0.9445757,2.414749,null,null,,
74,spatial,TRUE,FALSE,ao-incongruent,14,0,7.713986,impact_large_metal (UnityEngine.GameObject),slide_large_wood (UnityEngine.GameObject),2.6423267,1,0,0,null,0.2864778,1.091846,2.858259,-0.4442928,1.092846,2.83274,-0.0338502,0.8799409,2.903245,null,null,,
75,spatial,TRUE,FALSE,ao-incongruent,14,0,-9.773443,slide_large_wood (UnityEngine.GameObject),impact_large_metal (UnityEngine.GameObject),3.6971155,0,0,0,null,0.6004378,1.098808,2.823326,1.295866,1.098808,2.597368,1.758296,0.9260668,2.336607,null,null,,
185,spatial,TRUE,FALSE,ao-incongruent,14,0,0.5824909,slide_large_metal (UnityEngine.GameObject),impact_large_wood (UnityEngine.GameObject),2.6544805,1,0,0,null,0.5632905,1.079699,2.890991,1.262556,1.079699,2.677205,1.219249,0.8851368,2.651435,null,null,,
191,spatial,TRUE,FALSE,ao-incongruent,14,0,-4.313296,slide_large_wood (UnityEngine.GameObject),impact_large_metal (UnityEngine.GameObject),2.2753245,0,0,0,null,-0.3766727,1.085866,2.836567,-1.082973,1.085866,2.647315,-1.303945,0.9811488,2.575097,null,null,,
204,spatial,TRUE,FALSE,ao-incongruent,14,0,-0.5542608,impact_large_metal (UnityEngine.GameObject),slide_large_wood (UnityEngine.GameObject),2.1434709,0,0,0,null,0.5978087,1.082928,2.812371,1.293237,1.083928,2.586413,1.325614,0.9201183,2.584808,null,null,,
208,spatial,TRUE,FALSE,ao-incongruent,14,0,5.038901,slide_large_wood (UnityEngine.GameObject),impact_large_metal (UnityEngine.GameObject),2.7098078,1,0,0,null,0.1886837,1.086358,2.859788,-0.5407512,1.086358,2.808781,-0.2793677,0.8456895,2.890389,null,null,,
215,spatial,TRUE,FALSE,ao-incongruent,14,0,-6.295257,slide_large_metal (UnityEngine.GameObject),impact_large_wood (UnityEngine.GameObject),2.0995788,0,0,0,null,-0.4404658,1.082147,2.834334,-1.143356,1.082147,2.632784,-1.46771,0.8872461,2.523093,null,null,,
231,spatial,TRUE,FALSE,ao-incongruent,14,0,-8.442037,slide_large_metal (UnityEngine.GameObject),impact_large_wood (UnityEngine.GameObject),2.5436401,0,0,0,null,-0.01893275,1.08272,2.867801,-0.7430326,1.08272,2.766036,-1.186653,0.910963,2.659389,null,null,,
238,spatial,TRUE,FALSE,ao-incongruent,14,0,7.672761,slide_large_wood (UnityEngine.GameObject),impact_large_metal (UnityEngine.GameObject),1.7664032,1,0,0,null,0.4016472,1.082646,2.845091,-0.3295688,1.082646,2.845091,0.08036479,0.7891532,2.926372,null,null,,
251,spatial,TRUE,FALSE,ao-incongruent,14,0,3.507941,slide_large_wood (UnityEngine.GameObject),impact_large_metal (UnityEngine.GameObject),2.7751675,1,0,0,null,0.1371287,1.088057,2.869009,-0.5913049,1.088057,2.80528,-0.4149572,0.8065482,2.889425,null,null,,
255,spatial,TRUE,FALSE,ao-incongruent,14,0,-4.444441,slide_large_wood (UnityEngine.GameObject),impact_large_metal (UnityEngine.GameObject),2.1429794,0,0,0,null,-0.4340841,1.082725,2.8322,-1.136974,1.082725,2.63065,-1.366696,0.9372206,2.557891,null,null,,
257,spatial,TRUE,FALSE,ao-incongruent,14,0,13.74612,impact_large_metal (UnityEngine.GameObject),slide_large_wood (UnityEngine.GameObject),1.7119806,1,1,0,null,0.1426363,1.083069,2.865838,0.8648499,1.084069,2.751451,0.1397068,0.8769181,2.89413,null,null,,
272,spatial,TRUE,FALSE,ao-incongruent,14,0,4.521644,slide_large_wood (UnityEngine.GameObject),impact_large_metal (UnityEngine.GameObject),1.9184934,1,0,0,null,-0.3747787,1.079297,2.841797,0.356326,1.079297,2.854558,0.1149631,0.9328458,2.879508,null,null,,
280,spatial,TRUE,FALSE,ao-incongruent,14,0,1.077018,impact_large_metal (UnityEngine.GameObject),slide_large_wood (UnityEngine.GameObject),1.7992119,1,0,0,null,-0.5899836,1.07629,2.807398,-1.281362,1.07729,2.569337,-1.23508,0.9946788,2.60585,null,null,,
12,spatial,TRUE,FALSE,ao-congruent,16,0,5.919371,slide_large_metal (UnityEngine.GameObject),slide_large_metal (UnityEngine.GameObject),3.1877947,1,0,0,null,-0.5579362,1.095375,2.819861,0.2759582,1.096375,2.863563,-0.04164163,0.9880085,2.869725,null,null,,0.5625
31,spatial,TRUE,FALSE,ao-congruent,16,0,7.17001,impact_large_wood (UnityEngine.GameObject),impact_large_wood (UnityEngine.GameObject),2.5116778,1,0,0,null,0.3839824,1.098758,2.848783,-0.4509293,1.098758,2.83421,-0.06886952,0.9200684,2.887756,null,null,,
33,spatial,TRUE,FALSE,ao-congruent,16,0,8.688059,impact_large_metal (UnityEngine.GameObject),impact_large_metal (UnityEngine.GameObject),2.4656581,1,0,0,null,0.3226866,1.098282,2.855253,-0.5118436,1.098282,2.82611,-0.0490525,0.8940359,2.89753,null,null,,
42,spatial,TRUE,FALSE,ao-congruent,16,0,-4.920637,slide_large_metal (UnityEngine.GameObject),slide_large_metal (UnityEngine.GameObject),2.6981448,0,0,0,null,-0.1494224,1.095671,2.868744,-0.9691192,1.096671,2.709411,-1.200215,1.122021,2.580175,null,null,,
46,spatial,TRUE,FALSE,ao-congruent,16,0,-4.508456,slide_large_wood (UnityEngine.GameObject),slide_large_wood (UnityEngine.GameObject),2.4984864,0,0,0,null,-0.3302859,1.096439,2.851206,-1.136871,1.097439,2.635082,-1.364779,0.9641717,2.54965,null,null,,
67,spatial,TRUE,FALSE,ao-congruent,16,0,-2.065354,slide_large_metal (UnityEngine.GameObject),slide_large_metal (UnityEngine.GameObject),2.3992486,0,0,0,null,-0.4501761,1.094722,2.830556,-1.248728,1.095722,2.586414,-1.375602,0.8169098,2.594498,null,null,,
68,spatial,TRUE,FALSE,ao-congruent,16,0,5.276929,slide_large_wood (UnityEngine.GameObject),slide_large_wood (UnityEngine.GameObject),2.3985653,1,0,0,null,-0.3945705,1.096256,2.836163,0.4404683,1.097256,2.836163,0.1587953,0.9822681,2.860365,null,null,,
69,spatial,TRUE,FALSE,ao-congruent,16,0,-8.366025,impact_large_wood (UnityEngine.GameObject),impact_large_wood (UnityEngine.GameObject),3.144219,0,0,0,null,-0.1853815,1.096959,2.856807,-1.002173,1.096959,2.683192,-1.412307,1.030494,2.502526,null,null,,
76,spatial,TRUE,FALSE,ao-congruent,16,0,3.940791,impact_large_wood (UnityEngine.GameObject),impact_large_wood (UnityEngine.GameObject),2.5660151,1,0,0,null,-0.5906173,1.097695,2.811757,0.2423873,1.097695,2.870006,0.03094122,0.911294,2.894,null,null,,
86,spatial,TRUE,FALSE,ao-congruent,16,0,1.65694,impact_large_metal (UnityEngine.GameObject),impact_large_metal (UnityEngine.GameObject),3.364048,1,0,0,null,-0.02069276,1.097245,2.877009,-0.8454509,1.097245,2.74638,-0.7558059,1.029083,2.755168,null,null,,
95,spatial,TRUE,FALSE,ao-congruent,16,0,7.598792,impact_large_metal (UnityEngine.GameObject),impact_large_metal (UnityEngine.GameObject),2.1085902,1,0,0,null,0.5020346,1.098378,2.838989,-0.3328771,1.098378,2.853563,0.07429592,0.9759176,2.870292,null,null,,
103,spatial,TRUE,FALSE,ao-congruent,16,0,-7.502344,slide_large_wood (UnityEngine.GameObject),slide_large_wood (UnityEngine.GameObject),2.2539301,0,0,0,null,-0.1286964,1.094217,2.874011,-0.9483931,1.095217,2.714678,-1.330298,0.9281315,2.579704,null,null,,
186,spatial,TRUE,FALSE,ao-congruent,16,0,9.931492,impact_large_metal (UnityEngine.GameObject),impact_large_metal (UnityEngine.GameObject),2.7528852,1,0,0,null,0.3005731,1.092164,2.897333,-0.5333214,1.092164,2.85363,0.001177978,0.8418559,2.917882,null,null,,
190,spatial,TRUE,FALSE,ao-congruent,16,0,5.851931,slide_large_wood (UnityEngine.GameObject),slide_large_wood (UnityEngine.GameObject),2.1878309,1,0,0,null,0.5632597,1.086134,2.820414,-0.2712705,1.087134,2.849556,0.04094239,0.8473059,2.912464,null,null,,
193,spatial,TRUE,FALSE,ao-congruent,16,0,12.91096,slide_large_metal (UnityEngine.GameObject),slide_large_metal (UnityEngine.GameObject),3.4513546,1,1,0,null,0.1925412,1.083462,2.863111,-0.63932,1.084462,2.790332,0.04518721,0.9107338,2.892821,null,null,,
198,spatial,TRUE,FALSE,ao-congruent,16,0,-0.4809199,impact_large_wood (UnityEngine.GameObject),impact_large_wood (UnityEngine.GameObject),2.2549118,0,0,0,null,-0.4484107,1.085618,2.828634,-1.246962,1.085618,2.584492,-1.279307,0.959869,2.595041,null,null,,
205,spatial,TRUE,FALSE,ao-congruent,16,0,-5.559822,impact_large_wood (UnityEngine.GameObject),impact_large_wood (UnityEngine.GameObject),2.3073979,0,0,0,null,-0.181554,1.082389,2.863186,-0.9983453,1.082389,2.689572,-1.281782,0.9612974,2.59328,null,null,,
220,spatial,TRUE,FALSE,ao-congruent,16,0,9.602856,impact_large_wood (UnityEngine.GameObject),impact_large_wood (UnityEngine.GameObject),2.3195644,1,0,0,null,-0.0209475,1.083348,2.867736,0.8078671,1.083348,2.76597,0.3066373,0.7992433,2.901888,null,null,,
227,spatial,TRUE,FALSE,ao-congruent,16,0,-13.32808,slide_large_wood (UnityEngine.GameObject),slide_large_wood (UnityEngine.GameObject),2.3004182,0,0,0,null,0.1411422,1.082046,2.865829,0.9634949,1.083046,2.720826,1.625656,0.9064915,2.435303,null,null,,
235,spatial,TRUE,FALSE,ao-congruent,16,0,10.5521,impact_large_metal (UnityEngine.GameObject),impact_large_metal (UnityEngine.GameObject),2.0328253,1,0,0,null,-0.1167321,1.076394,2.876358,0.7151291,1.076394,2.803579,0.1554963,0.8099477,2.912951,null,null,,
239,spatial,TRUE,FALSE,ao-congruent,16,0,-1.573834,slide_large_metal (UnityEngine.GameObject),slide_large_metal (UnityEngine.GameObject),1.8901673,0,0,0,null,-0.4909486,1.082892,2.822659,-1.285118,1.083892,2.564618,-1.376515,0.9192043,2.559012,null,null,,
242,spatial,TRUE,FALSE,ao-congruent,16,0,0.5070629,slide_large_wood (UnityEngine.GameObject),slide_large_wood (UnityEngine.GameObject),1.6756856,1,0,0,null,-0.3790804,1.082312,2.844303,-1.181771,1.083312,2.614135,-1.183393,0.8885788,2.668726,null,null,,
247,spatial,TRUE,FALSE,ao-congruent,16,0,17.05449,impact_large_metal (UnityEngine.GameObject),impact_large_metal (UnityEngine.GameObject),2.3547589,1,1,0,null,0.2374391,1.080739,2.862701,1.05423,1.080739,2.689087,0.1637996,0.7702121,2.924218,null,null,,
249,spatial,TRUE,FALSE,ao-congruent,16,0,-2.278214,slide_large_metal (UnityEngine.GameObject),slide_large_metal (UnityEngine.GameObject),2.1026665,0,0,0,null,-0.4357861,1.078413,2.834946,-1.234338,1.079413,2.590805,-1.356112,0.943035,2.561338,null,null,,
7,spatial,TRUE,FALSE,ao-incongruent,16,0,6.69984,impact_large_metal (UnityEngine.GameObject),slide_large_wood (UnityEngine.GameObject),2.5011555,1,0,0,null,0.2112365,1.093713,2.879611,-0.6217682,1.094713,2.821362,-0.2620493,0.9985029,2.845673,null,null,,
32,spatial,TRUE,FALSE,ao-incongruent,16,0,-7.080225,slide_large_metal (UnityEngine.GameObject),impact_large_wood (UnityEngine.GameObject),2.4437366,0,0,0,null,0.009754417,1.093499,2.895067,-0.8171579,1.093499,2.778852,-1.181625,0.9169779,2.659914,null,null,,
35,spatial,TRUE,FALSE,ao-incongruent,16,0,13.65972,slide_large_wood (UnityEngine.GameObject),impact_large_metal (UnityEngine.GameObject),2.5006944,1,1,0,null,0.3769141,1.100515,2.845886,-0.4579976,1.100515,2.831312,0.2724933,0.954402,2.858054,null,null,,
47,spatial,TRUE,FALSE,ao-incongruent,16,0,8.115322,slide_large_wood (UnityEngine.GameObject),impact_large_metal (UnityEngine.GameObject),2.363686,1,0,0,null,0.1847754,1.098448,2.865724,-0.6470858,1.098448,2.792946,-0.2175927,0.969508,2.858678,null,null,,
57,spatial,TRUE,FALSE,ao-incongruent,16,0,6.401411,impact_large_metal (UnityEngine.GameObject),slide_large_wood (UnityEngine.GameObject),1.9543857,1,0,0,null,0.07546266,1.096193,2.868014,-0.7533519,1.097193,2.766249,-0.4189928,0.9552211,2.843943,null,null,,
59,spatial,TRUE,FALSE,ao-incongruent,16,0,9.166926,slide_large_wood (UnityEngine.GameObject),impact_large_metal (UnityEngine.GameObject),2.6334963,1,0,0,null,0.2854261,1.097041,2.857387,-0.5484684,1.097041,2.813684,-0.06130231,0.937424,2.883208,null,null,,
72,spatial,TRUE,FALSE,ao-incongruent,16,0,-6.556909,slide_large_metal (UnityEngine.GameObject),impact_large_wood (UnityEngine.GameObject),3.6451076,0,0,0,null,0.01876657,1.094845,2.870227,0.8456789,1.094845,2.754012,1.174006,1.026579,2.626266,null,null,,
78,spatial,TRUE,FALSE,ao-incongruent,16,0,13.68324,slide_large_wood (UnityEngine.GameObject),impact_large_metal (UnityEngine.GameObject),1.8991667,1,1,0,null,0.1890655,1.102494,2.866739,-0.6427957,1.102494,2.793961,0.0857401,0.9175919,2.886902,null,null,,
88,spatial,TRUE,FALSE,ao-incongruent,16,0,4.489517,slide_large_wood (UnityEngine.GameObject),impact_large_metal (UnityEngine.GameObject),2.4646197,1,0,0,null,-0.4899176,1.098258,2.831358,0.3446126,1.098258,2.860501,0.1051575,0.84481,2.907141,null,null,,
98,spatial,TRUE,FALSE,ao-incongruent,16,0,16.52266,impact_large_metal (UnityEngine.GameObject),slide_large_wood (UnityEngine.GameObject),2.1999941,1,1,0,null,-0.01813662,1.094311,2.879074,-0.8428947,1.095312,2.748445,0.03178851,0.8682855,2.906967,null,null,,
102,spatial,TRUE,FALSE,ao-incongruent,16,0,6.349527,slide_large_metal (UnityEngine.GameObject),impact_large_wood (UnityEngine.GameObject),2.4657267,1,0,0,null,0.4995524,1.096962,2.839304,-0.3353593,1.096962,2.853878,0.004502251,0.906248,2.898034,null,null,,
104,spatial,TRUE,FALSE,ao-incongruent,16,0,7.765362,slide_large_wood (UnityEngine.GameObject),impact_large_metal (UnityEngine.GameObject),2.2989505,1,0,0,null,0.5501352,1.097376,2.830433,-0.284395,1.097376,2.859576,0.1323088,0.9320566,2.878105,null,null,,
196,spatial,TRUE,FALSE,ao-incongruent,16,0,-7.473386,slide_large_metal (UnityEngine.GameObject),impact_large_wood (UnityEngine.GameObject),2.545573,0,0,0,null,0.08586751,1.084971,2.86347,-0.7429471,1.084971,2.761704,-1.130046,0.9957643,2.656547,null,null,,
199,spatial,TRUE,FALSE,ao-incongruent,16,0,-1.595323,slide_large_wood (UnityEngine.GameObject),impact_large_metal (UnityEngine.GameObject),2.4778515,0,0,0,null,-0.3998768,1.084927,2.840186,-1.202567,1.084927,2.610018,-1.295147,0.9026296,2.606495,null,null,,
213,spatial,TRUE,FALSE,ao-incongruent,16,0,-0.758472,slide_large_wood (UnityEngine.GameObject),impact_large_metal (UnityEngine.GameObject),2.7776446,0,0,0,null,-0.5949513,1.084554,2.803805,-1.379631,1.084554,2.518205,-1.429496,0.9329072,2.527099,null,null,,
223,spatial,TRUE,FALSE,ao-incongruent,16,0,13.12465,impact_large_metal (UnityEngine.GameObject),slide_large_wood (UnityEngine.GameObject),2.4872814,1,1,0,null,0.1918966,1.081864,2.863381,-0.6399646,1.082865,2.790602,0.05594062,0.8269556,2.917217,null,null,,
225,spatial,TRUE,FALSE,ao-incongruent,16,0,-11.60086,slide_large_wood (UnityEngine.GameObject),impact_large_metal (UnityEngine.GameObject),2.1879697,0,0,0,null,0.03276715,1.080689,2.870145,-0.7941451,1.080689,2.75393,-1.382512,0.9399421,2.548832,null,null,,
234,spatial,TRUE,FALSE,ao-incongruent,16,0,-8.203176,slide_large_metal (UnityEngine.GameObject),impact_large_wood (UnityEngine.GameObject),1.9756216,0,0,0,null,0.08909733,1.079475,2.869411,-0.7397172,1.079475,2.767646,-1.166534,0.9546705,2.654766,null,null,,
260,spatial,TRUE,FALSE,ao-incongruent,16,0,12.71352,impact_large_metal (UnityEngine.GameObject),slide_large_wood (UnityEngine.GameObject),2.1755075,1,0,0,null,-0.01284487,1.080715,2.870103,-0.837603,1.081715,2.739474,-0.1720224,0.9050549,2.882544,null,null,,
261,spatial,TRUE,FALSE,ao-incongruent,16,0,-5.164864,slide_large_wood (UnityEngine.GameObject),impact_large_metal (UnityEngine.GameObject),2.432943,0,0,0,null,-0.2246187,1.079926,2.860544,-1.038255,1.079926,2.672701,-1.303655,0.9457096,2.587377,null,null,,
263,spatial,TRUE,FALSE,ao-incongruent,16,0,-6.11571,slide_large_wood (UnityEngine.GameObject),impact_large_metal (UnityEngine.GameObject),2.9671105,0,0,0,null,0.08703433,1.079874,2.870304,-0.7417803,1.079874,2.768539,-1.041105,1.13623,2.638171,null,null,,
270,spatial,TRUE,FALSE,ao-incongruent,16,0,9.898151,impact_large_metal (UnityEngine.GameObject),slide_large_wood (UnityEngine.GameObject),2.1078806,1,0,0,null,-0.4822333,1.07828,2.825078,0.3522969,1.07928,2.85422,-0.1763907,1.01025,2.85022,null,null,,
271,spatial,TRUE,FALSE,ao-incongruent,16,0,-7.438515,slide_large_wood (UnityEngine.GameObject),impact_large_metal (UnityEngine.GameObject),2.0320416,0,0,0,null,-0.1662813,1.079571,2.863184,-0.9830725,1.079571,2.68957,-1.356361,0.9801401,2.54851,null,null,,
279,spatial,TRUE,FALSE,ao-incongruent,16,0,-11.56201,slide_large_metal (UnityEngine.GameObject),impact_large_wood (UnityEngine.GameObject),3.0990945,0,0,0,null,0.1405698,1.078105,2.87148,-0.6898946,1.078105,2.784195,-1.274144,1.006915,2.58159,null,null,,
109,temporal,TRUE,FALSE,ao-congruent,0,0,1.511679,impact_large_metal (UnityEngine.GameObject),impact_large_metal (UnityEngine.GameObject),1.8324492,null,null,0,1,0.02170787,1.104789,2.881003,0.02170787,1.104789,2.881003,0.09474333,0.3979502,3.003238,null,same,,
170,temporal,TRUE,FALSE,ao-congruent,0,0,-1.10074,impact_large_wood (UnityEngine.GameObject),impact_large_wood (UnityEngine.GameObject),1.887482,null,null,0,1,0.01637949,1.091841,2.896743,0.01637949,1.091841,2.896743,-0.03043737,0.413553,3.007799,null,same,,
178,temporal,TRUE,FALSE,ao-congruent,0,0,-4.304296,slide_large_metal (UnityEngine.GameObject),slide_large_metal (UnityEngine.GameObject),2.0770199,null,null,0,1,0.01959597,1.09045,2.890645,0.01959597,1.09145,2.890645,-0.2167145,0.3864824,2.992828,null,same,,
182,temporal,TRUE,FALSE,ao-congruent,0,0,-5.370749,slide_large_wood (UnityEngine.GameObject),slide_large_wood (UnityEngine.GameObject),2.4542322,null,null,0,1,0.03479947,1.096345,2.880013,0.03479947,1.097345,2.880013,-0.2605215,0.3979111,2.987555,null,same,,
105,temporal,TRUE,FALSE,ao-incongruent,0,0,-3.211503,slide_large_metal (UnityEngine.GameObject),impact_large_wood (UnityEngine.GameObject),2.3340406,null,null,0,1,0.03670787,1.096248,2.885228,0.03670787,1.096248,2.885228,-0.1366381,0.4461375,2.994535,null,same,,
133,temporal,TRUE,FALSE,ao-incongruent,0,0,-6.517914,slide_large_wood (UnityEngine.GameObject),impact_large_metal (UnityEngine.GameObject),2.1656004,null,null,0,1,0.02923733,1.096543,2.880391,0.02923733,1.096543,2.880391,-0.3304428,0.424713,2.978295,null,same,,
162,temporal,TRUE,FALSE,ao-incongruent,0,0,-1.680162,slide_large_wood (UnityEngine.GameObject),impact_large_metal (UnityEngine.GameObject),1.9000083,null,null,0,1,0.01834964,1.091163,2.88205,0.01834964,1.091163,2.88205,-0.064082,0.4138629,3.004583,null,same,,
183,temporal,TRUE,FALSE,ao-incongruent,0,0,-5.508759,impact_large_metal (UnityEngine.GameObject),slide_large_wood (UnityEngine.GameObject),2.5447581,null,null,0,1,0.03725519,1.096266,2.880579,0.03725519,1.097266,2.880579,-0.265758,0.3993241,2.98692,null,same,,
111,temporal,TRUE,FALSE,ao-congruent,0,0,1.197303,impact_large_metal (UnityEngine.GameObject),impact_large_metal (UnityEngine.GameObject),2.5988094,null,null,0.15,1,0.02454142,1.102718,2.881073,0.02454142,1.102718,2.881073,0.07538253,0.3907297,3.005783,null,null,,
112,temporal,TRUE,FALSE,ao-congruent,0,0,-69.0555,slide_large_metal (UnityEngine.GameObject),slide_large_metal (UnityEngine.GameObject),3.7214624,null,null,0.15,0,0.02839262,1.101454,2.880188,0.02839262,1.102454,2.880188,0,0,0,null,null,,
125,temporal,TRUE,FALSE,ao-congruent,0,0,4.947003,slide_large_wood (UnityEngine.GameObject),slide_large_wood (UnityEngine.GameObject),1.8427489,null,null,0.15,1,0.02292142,1.095739,2.879042,0.02292142,1.096739,2.879042,0.2965515,0.3735397,2.986536,null,null,,
127,temporal,TRUE,FALSE,ao-congruent,0,0,2.957639,impact_large_metal (UnityEngine.GameObject),impact_large_metal (UnityEngine.GameObject),2.9331143,null,null,0.15,1,0.02744303,1.094939,2.88144,0.02744303,1.094939,2.88144,0.1880997,0.3589324,2.998243,null,null,,
138,temporal,TRUE,FALSE,ao-congruent,0,0,-5.892022,slide_large_metal (UnityEngine.GameObject),slide_large_metal (UnityEngine.GameObject),2.0090878,null,null,0.15,1,0.04298322,1.096207,2.88384,0.04298322,1.097208,2.88384,-0.2813397,0.4388169,2.981555,null,null,,
143,temporal,TRUE,FALSE,ao-congruent,0,0,-69.24246,impact_large_wood (UnityEngine.GameObject),impact_large_wood (UnityEngine.GameObject),3.9879279,null,null,0.15,0,0.02099462,1.093518,2.88507,0.02099462,1.093518,2.88507,0,0,0,null,null,,
144,temporal,TRUE,FALSE,ao-congruent,0,0,0.9691444,impact_large_wood (UnityEngine.GameObject),impact_large_wood (UnityEngine.GameObject),1.9893583,null,null,0.15,1,0.02132655,1.095055,2.881457,0.02132655,1.095055,2.881457,0.05417673,0.4279627,3.004123,null,null,,
152,temporal,TRUE,FALSE,ao-congruent,0,0,-69.29454,impact_large_wood (UnityEngine.GameObject),impact_large_wood (UnityEngine.GameObject),3.9986812,null,null,0.15,0,0.03141433,1.091208,2.886795,0.03141433,1.091208,2.886795,0,0,0,null,null,,
158,temporal,TRUE,FALSE,ao-congruent,0,0,-1.492134,slide_large_wood (UnityEngine.GameObject),slide_large_wood (UnityEngine.GameObject),1.8002946,null,null,0.15,1,0.02378818,1.092715,2.88019,0.02378818,1.093715,2.88019,-0.04535389,0.4037259,3.007355,null,null,,
169,temporal,TRUE,FALSE,ao-congruent,0,0,-69.33096,slide_large_metal (UnityEngine.GameObject),slide_large_metal (UnityEngine.GameObject),3.7290233,null,null,0.15,0,0.01829774,1.091577,2.896096,0.01829774,1.092577,2.896096,0,0,0,null,null,,
171,temporal,TRUE,FALSE,ao-congruent,0,0,-69.29049,slide_large_wood (UnityEngine.GameObject),slide_large_wood (UnityEngine.GameObject),3.7319835,null,null,0.15,0,0.02400385,1.09211,2.89128,0.02400385,1.09311,2.89128,0,0,0,null,null,,
181,temporal,TRUE,FALSE,ao-congruent,0,0,-5.111209,impact_large_metal (UnityEngine.GameObject),impact_large_metal (UnityEngine.GameObject),2.5983293,null,null,0.15,1,0.035774,1.098598,2.879195,0.035774,1.098598,2.879195,-0.2448968,0.3957309,2.989249,null,null,,
284,temporal,TRUE,FALSE,ao-congruent,0,0,-68.52565,slide_large_wood (UnityEngine.GameObject),slide_large_wood (UnityEngine.GameObject),3.7322289,null,null,0.15,0,0.02264016,1.110027,2.824123,0.02264016,1.111027,2.824123,0,0,0,null,null,,
285,temporal,TRUE,FALSE,ao-congruent,0,0,-7.545769,slide_large_wood (UnityEngine.GameObject),slide_large_wood (UnityEngine.GameObject),2.2530984,null,null,0.15,1,0.006961251,1.1116,2.818753,0.006961251,1.1126,2.818753,-0.3599288,1.506835,2.603832,null,null,,
290,temporal,TRUE,FALSE,ao-congruent,0,0,-9.974665,impact_large_metal (UnityEngine.GameObject),impact_large_metal (UnityEngine.GameObject),2.0986534,null,null,0.15,1,0.001227292,1.105073,2.825923,0.001227292,1.105073,2.825923,-0.4951484,1.434917,2.62947,null,null,,
296,temporal,TRUE,FALSE,ao-congruent,0,0,-12.4211,impact_large_wood (UnityEngine.GameObject),impact_large_wood (UnityEngine.GameObject),2.2224427,null,null,0.15,1,0.03714793,1.108538,2.826584,0.03714793,1.108538,2.826584,-0.5818226,1.450384,2.605061,null,null,,
301,temporal,TRUE,FALSE,ao-congruent,0,0,-7.207697,slide_large_wood (UnityEngine.GameObject),slide_large_wood (UnityEngine.GameObject),2.0658941,null,null,0.15,1,0.004112011,1.105202,2.824318,0.004112011,1.106202,2.824318,-0.359156,1.360703,2.682014,null,null,,
305,temporal,TRUE,FALSE,ao-congruent,0,0,-13.79936,impact_large_wood (UnityEngine.GameObject),impact_large_wood (UnityEngine.GameObject),2.3902565,null,null,0.15,1,0.03306165,1.119884,2.823999,0.03306165,1.119884,2.823999,-0.6669147,1.349682,2.636225,null,null,,
312,temporal,TRUE,FALSE,ao-congruent,0,0,-5.797686,slide_large_metal (UnityEngine.GameObject),slide_large_metal (UnityEngine.GameObject),2.4769936,null,null,0.15,1,0.005430597,1.10238,2.83066,0.005430597,1.10338,2.83066,-0.2855985,1.357174,2.690865,null,null,,
322,temporal,TRUE,FALSE,ao-congruent,0,0,14.83641,slide_large_metal (UnityEngine.GameObject),slide_large_metal (UnityEngine.GameObject),2.3772236,null,null,0.15,1,-0.04892779,1.102602,2.850247,-0.04892779,1.103602,2.850247,0.7122434,1.270642,2.666916,null,null,,
325,temporal,TRUE,FALSE,ao-congruent,0,0,68.83586,slide_large_metal (UnityEngine.GameObject),slide_large_metal (UnityEngine.GameObject),3.721818,null,null,0.15,0,-0.05457597,1.102491,2.849738,-0.05457597,1.103491,2.849738,0,0,0,null,null,,
331,temporal,TRUE,FALSE,ao-congruent,0,0,-3.881461,impact_large_wood (UnityEngine.GameObject),impact_large_wood (UnityEngine.GameObject),2.4654071,null,null,0.15,1,-0.007708684,1.100941,2.829947,-0.007708684,1.100941,2.829947,-0.200902,1.338595,2.708815,null,null,,
344,temporal,TRUE,FALSE,ao-congruent,0,0,-3.831906,impact_large_metal (UnityEngine.GameObject),impact_large_metal (UnityEngine.GameObject),1.8569365,null,null,0.15,1,-0.001654834,1.099591,2.831512,-0.001654834,1.099591,2.831512,-0.1944842,1.31099,2.724178,null,null,,
346,temporal,TRUE,FALSE,ao-congruent,0,0,0.5252593,impact_large_metal (UnityEngine.GameObject),impact_large_metal (UnityEngine.GameObject),2.7450002,null,null,0.15,1,-0.01692358,1.100472,2.830703,-0.01692358,1.100472,2.830703,-0.01107309,1.281768,2.757163,null,null,,
114,temporal,TRUE,FALSE,ao-incongruent,0,0,-69.11645,slide_large_wood (UnityEngine.GameObject),impact_large_metal (UnityEngine.GameObject),3.9537094,null,null,0.15,0,0.02621092,1.099934,2.882806,0.02621092,1.099934,2.882806,0,0,0,null,null,,
122,temporal,TRUE,FALSE,ao-incongruent,0,0,-2.413543,impact_large_metal (UnityEngine.GameObject),slide_large_wood (UnityEngine.GameObject),2.0548286,null,null,0.15,1,0.03458614,1.096828,2.881043,0.03458614,1.097828,2.881043,-0.09119999,0.3548198,3.007831,null,null,,
123,temporal,TRUE,FALSE,ao-incongruent,0,0,-1.716574,slide_large_metal (UnityEngine.GameObject),impact_large_wood (UnityEngine.GameObject),2.3682334,null,null,0.15,1,0.05277211,1.094312,2.887906,0.05277211,1.094312,2.887906,-0.03043631,0.3611442,3.012961,null,null,,
124,temporal,TRUE,FALSE,ao-incongruent,0,0,-69.16518,slide_large_wood (UnityEngine.GameObject),impact_large_metal (UnityEngine.GameObject),3.9549979,null,null,0.15,0,0.0203315,1.096354,2.880826,0.0203315,1.096354,2.880826,0,0,0,null,null,,
130,temporal,TRUE,FALSE,ao-incongruent,0,0,-4.036869,slide_large_wood (UnityEngine.GameObject),impact_large_metal (UnityEngine.GameObject),2.2429564,null,null,0.15,1,0.02727638,1.096234,2.881273,0.02727638,1.096234,2.881273,-0.1930915,0.4672118,2.987114,null,null,,
135,temporal,TRUE,FALSE,ao-incongruent,0,0,-5.960227,slide_large_wood (UnityEngine.GameObject),impact_large_metal (UnityEngine.GameObject),2.1874075,null,null,0.15,1,0.03919645,1.095575,2.881784,0.03919645,1.095575,2.881784,-0.2890641,0.4050826,2.984146,null,null,,
137,temporal,TRUE,FALSE,ao-incongruent,0,0,-5.902724,slide_large_metal (UnityEngine.GameObject),impact_large_wood (UnityEngine.GameObject),3.4099402,null,null,0.15,1,0.04322626,1.096238,2.885529,0.04322626,1.096238,2.885529,-0.2818336,0.4189703,2.983463,null,null,,
147,temporal,TRUE,FALSE,ao-incongruent,0,0,0.8577499,impact_large_metal (UnityEngine.GameObject),slide_large_wood (UnityEngine.GameObject),1.7446563,null,null,0.15,1,0.01159472,1.092197,2.883209,0.01159472,1.093197,2.883209,0.0318705,0.42882,3.006151,null,null,,
150,temporal,TRUE,FALSE,ao-incongruent,0,0,-3.357597,slide_large_wood (UnityEngine.GameObject),impact_large_metal (UnityEngine.GameObject),2.8213468,null,null,0.15,1,0.01819583,1.093798,2.881631,0.01819583,1.093798,2.881631,-0.1637816,0.4110564,2.99542,null,null,,
156,temporal,TRUE,FALSE,ao-incongruent,0,0,-5.676958,slide_large_metal (UnityEngine.GameObject),impact_large_wood (UnityEngine.GameObject),2.2991942,null,null,0.15,1,0.03552208,1.092109,2.885699,0.03552208,1.092109,2.885699,-0.2770828,0.4056357,2.985226,null,null,,
157,temporal,TRUE,FALSE,ao-incongruent,0,0,-0.9707584,slide_large_wood (UnityEngine.GameObject),impact_large_metal (UnityEngine.GameObject),2.3020707,null,null,0.15,1,0.02591364,1.092128,2.884323,0.02591364,1.092128,2.884323,-0.003192605,0.3983174,3.011879,null,null,,
175,temporal,TRUE,FALSE,ao-incongruent,0,0,-3.988652,impact_large_metal (UnityEngine.GameObject),slide_large_wood (UnityEngine.GameObject),1.8234785,null,null,0.15,1,0.02419049,1.089823,2.89106,0.02419049,1.090823,2.89106,-0.194131,0.3849682,2.995116,null,null,,
286,temporal,TRUE,FALSE,ao-incongruent,0,0,68.73834,slide_large_wood (UnityEngine.GameObject),impact_large_metal (UnityEngine.GameObject),3.975177,null,null,0.15,0,-0.03354643,1.103617,2.83604,-0.03354643,1.103617,2.83604,0,0,0,null,null,,
293,temporal,TRUE,FALSE,ao-incongruent,0,0,-6.589159,impact_large_metal (UnityEngine.GameObject),slide_large_wood (UnityEngine.GameObject),1.9776116,null,null,0.15,1,-0.000690447,1.105577,2.827141,-0.000690447,1.106578,2.827141,-0.330197,1.380793,2.674018,null,null,,
298,temporal,TRUE,FALSE,ao-incongruent,0,0,-68.56129,slide_large_wood (UnityEngine.GameObject),impact_large_metal (UnityEngine.GameObject),3.9661524,null,null,0.15,0,0.007119769,1.109188,2.824687,0.007119769,1.109188,2.824687,0,0,0,null,null,,
309,temporal,TRUE,FALSE,ao-incongruent,0,0,-5.662786,slide_large_wood (UnityEngine.GameObject),impact_large_metal (UnityEngine.GameObject),2.1313053,null,null,0.15,1,0.008077219,1.102149,2.830598,0.008077219,1.102149,2.830598,-0.2771006,1.345219,2.698059,null,null,,
311,temporal,TRUE,FALSE,ao-incongruent,0,0,-68.68607,slide_large_wood (UnityEngine.GameObject),impact_large_metal (UnityEngine.GameObject),3.9756844,null,null,0.15,0,0.00389075,1.103904,2.82933,0.00389075,1.103904,2.82933,0,0,0,null,null,,
313,temporal,TRUE,FALSE,ao-incongruent,0,0,-4.735614,impact_large_metal (UnityEngine.GameObject),slide_large_wood (UnityEngine.GameObject),1.6317518,null,null,0.15,1,0.008341568,1.102312,2.831085,0.008341568,1.103312,2.831085,-0.2316205,1.312657,2.719771,null,null,,
314,temporal,TRUE,FALSE,ao-incongruent,0,0,-5.866282,slide_large_wood (UnityEngine.GameObject),impact_large_metal (UnityEngine.GameObject),1.9765345,null,null,0.15,1,0.007870631,1.10323,2.830648,0.007870631,1.10323,2.830648,-0.2884929,1.33628,2.701759,null,null,,
337,temporal,TRUE,FALSE,ao-incongruent,0,0,0.8045425,slide_large_wood (UnityEngine.GameObject),impact_large_metal (UnityEngine.GameObject),1.8425525,null,null,0.15,1,-0.02721178,1.101389,2.830669,-0.02721178,1.101389,2.830669,-0.02005349,1.352696,2.718401,null,null,,
339,temporal,TRUE,FALSE,ao-incongruent,0,0,0.8517979,impact_large_metal (UnityEngine.GameObject),slide_large_wood (UnityEngine.GameObject),1.9644001,null,null,0.15,1,-0.0323321,1.097592,2.832581,-0.0323321,1.098592,2.832581,-0.005259322,1.323781,2.735256,null,null,,
342,temporal,TRUE,FALSE,ao-incongruent,0,0,68.78485,slide_large_metal (UnityEngine.GameObject),impact_large_wood (UnityEngine.GameObject),3.9889665,null,null,0.15,0,-0.02282217,1.100243,2.834281,-0.02282217,1.100243,2.834281,0,0,0,null,null,,
348,temporal,TRUE,FALSE,ao-incongruent,0,0,68.83835,slide_large_metal (UnityEngine.GameObject),impact_large_wood (UnityEngine.GameObject),3.9982009,null,null,0.15,0,-0.01614085,1.097043,2.833923,-0.01614085,1.097043,2.833923,0,0,0,null,null,,
349,temporal,TRUE,FALSE,ao-incongruent,0,0,68.79209,slide_large_metal (UnityEngine.GameObject),impact_large_wood (UnityEngine.GameObject),3.9970333,null,null,0.15,0,-0.004036063,1.09911,2.832513,-0.004036063,1.09911,2.832513,0,0,0,null,null,,
110,temporal,TRUE,FALSE,ao-congruent,0,0,-69.02047,impact_large_metal (UnityEngine.GameObject),impact_large_metal (UnityEngine.GameObject),3.9766532,null,null,0.175,0,0.02467889,1.104392,2.880008,0.02467889,1.104392,2.880008,0,0,0,null,null,,
113,temporal,TRUE,FALSE,ao-congruent,0,0,1.264704,impact_large_wood (UnityEngine.GameObject),impact_large_wood (UnityEngine.GameObject),2.4090532,null,null,0.175,1,0.02674725,1.101342,2.881949,0.02674725,1.101342,2.881949,0.08355441,0.4098528,3.003126,null,null,,
116,temporal,TRUE,FALSE,ao-congruent,0,0,1.208366,impact_large_metal (UnityEngine.GameObject),impact_large_metal (UnityEngine.GameObject),2.5202309,null,null,0.175,1,0.02544366,1.0994,2.882343,0.02544366,1.0994,2.882343,0.07808463,0.4057469,3.004048,null,null,,
117,temporal,TRUE,FALSE,ao-congruent,0,0,1.136256,impact_large_wood (UnityEngine.GameObject),impact_large_wood (UnityEngine.GameObject),2.7546662,null,null,0.175,1,0.03306056,1.100187,2.879979,0.03306056,1.100187,2.879979,0.07931086,0.389965,3.005486,null,null,,
132,temporal,TRUE,FALSE,ao-congruent,0,0,-69.19862,slide_large_wood (UnityEngine.GameObject),slide_large_wood (UnityEngine.GameObject),3.7305792,null,null,0.175,0,0.02712584,1.093839,2.881848,0.02712584,1.094839,2.881848,0,0,0,null,null,,
136,temporal,TRUE,FALSE,ao-congruent,0,0,-5.649202,slide_large_metal (UnityEngine.GameObject),slide_large_metal (UnityEngine.GameObject),1.9657459,null,null,0.175,1,0.04552754,1.093436,2.885079,0.04552754,1.094436,2.885079,-0.2651864,0.4151903,2.985412,null,null,,
148,temporal,TRUE,FALSE,ao-congruent,0,0,-69.14371,slide_large_wood (UnityEngine.GameObject),slide_large_wood (UnityEngine.GameObject),3.7420663,null,null,0.175,0,0.02792488,1.096109,2.879498,0.02792488,1.097109,2.879498,0,0,0,null,null,,
149,temporal,TRUE,FALSE,ao-congruent,0,0,-69.17293,slide_large_metal (UnityEngine.GameObject),slide_large_metal (UnityEngine.GameObject),3.7227936,null,null,0.175,0,0.0288142,1.09482,2.88052,0.0288142,1.09582,2.88052,0,0,0,null,null,,
154,temporal,TRUE,FALSE,ao-congruent,0,0,-69.20105,slide_large_metal (UnityEngine.GameObject),slide_large_metal (UnityEngine.GameObject),3.7321839,null,null,0.175,0,0.03612085,1.09362,2.88154,0.03612085,1.09462,2.88154,0,0,0,null,null,,
164,temporal,TRUE,FALSE,ao-congruent,0,0,-1.418583,impact_large_wood (UnityEngine.GameObject),impact_large_wood (UnityEngine.GameObject),2.4766224,null,null,0.175,1,0.01693953,1.08947,2.884628,0.01693953,1.08947,2.884628,-0.04913276,0.4209808,3.005297,null,null,,
173,temporal,TRUE,FALSE,ao-congruent,0,0,-1.491085,impact_large_metal (UnityEngine.GameObject),impact_large_metal (UnityEngine.GameObject),2.2989362,null,null,0.175,1,0.02076075,1.09269,2.891228,0.02076075,1.09269,2.891228,-0.0514374,0.4255469,3.00463,null,null,,
179,temporal,TRUE,FALSE,ao-congruent,0,0,-4.928633,slide_large_wood (UnityEngine.GameObject),slide_large_wood (UnityEngine.GameObject),2.1533606,null,null,0.175,1,0.02250403,1.090899,2.898944,0.02250403,1.091899,2.898944,-0.2492288,0.4107071,2.987364,null,null,,
307,temporal,TRUE,FALSE,ao-congruent,0,0,-6.616721,impact_large_metal (UnityEngine.GameObject),impact_large_metal (UnityEngine.GameObject),2.4664982,null,null,0.175,1,0.004631853,1.101265,2.8297,0.004631853,1.101265,2.8297,-0.3277947,1.362809,2.683858,null,null,,
310,temporal,TRUE,FALSE,ao-congruent,0,0,-5.820395,impact_large_wood (UnityEngine.GameObject),impact_large_wood (UnityEngine.GameObject),2.4898116,null,null,0.175,1,0.006969634,1.100348,2.832584,0.006969634,1.100348,2.832584,-0.2857794,1.348851,2.695297,null,null,,
318,temporal,TRUE,FALSE,ao-congruent,0,0,68.70851,slide_large_metal (UnityEngine.GameObject),slide_large_metal (UnityEngine.GameObject),3.7199576,null,null,0.175,0,-0.03111952,1.105583,2.839315,-0.03111952,1.106583,2.839315,0,0,0,null,null,,
321,temporal,TRUE,FALSE,ao-congruent,0,0,14.66019,impact_large_wood (UnityEngine.GameObject),impact_large_wood (UnityEngine.GameObject),2.2899701,null,null,0.175,1,-0.05249402,1.102935,2.8511,-0.05249402,1.102935,2.8511,0.6984349,1.282845,2.664159,null,null,,
326,temporal,TRUE,FALSE,ao-congruent,0,0,15.74466,slide_large_metal (UnityEngine.GameObject),slide_large_metal (UnityEngine.GameObject),2.286697,null,null,0.175,1,-0.05746042,1.101515,2.851716,-0.05746042,1.102515,2.851716,0.7525355,1.248771,2.667325,null,null,,
327,temporal,TRUE,FALSE,ao-congruent,0,0,68.90631,slide_large_metal (UnityEngine.GameObject),slide_large_metal (UnityEngine.GameObject),3.721979,null,null,0.175,0,-0.05836677,1.100004,2.853657,-0.05836677,1.101004,2.853657,0,0,0,null,null,,
332,temporal,TRUE,FALSE,ao-congruent,0,0,-3.529364,impact_large_metal (UnityEngine.GameObject),impact_large_metal (UnityEngine.GameObject),2.1663138,null,null,0.175,1,-0.007322178,1.099314,2.829588,-0.007322178,1.099314,2.829588,-0.181729,1.344993,2.70721,null,null,,
335,temporal,TRUE,FALSE,ao-congruent,0,0,-3.320894,impact_large_metal (UnityEngine.GameObject),impact_large_metal (UnityEngine.GameObject),2.365712,null,null,0.175,1,-0.002311866,1.107071,2.824507,-0.002311866,1.107071,2.824507,-0.1683409,1.323059,2.720202,null,null,,
341,temporal,TRUE,FALSE,ao-congruent,0,0,68.75982,slide_large_wood (UnityEngine.GameObject),slide_large_wood (UnityEngine.GameObject),3.7220673,null,null,0.175,0,-0.02220979,1.100415,2.833634,-0.02220979,1.101415,2.833634,0,0,0,null,null,,
345,temporal,TRUE,FALSE,ao-congruent,0,0,68.72313,slide_large_wood (UnityEngine.GameObject),slide_large_wood (UnityEngine.GameObject),3.7327221,null,null,0.175,0,-0.01263993,1.099933,2.82709,-0.01263993,1.100933,2.82709,0,0,0,null,null,,
350,temporal,TRUE,FALSE,ao-congruent,0,0,0.8360308,slide_large_wood (UnityEngine.GameObject),slide_large_wood (UnityEngine.GameObject),1.8888467,null,null,0.175,1,-0.008792384,1.099337,2.830387,-0.008792384,1.100337,2.830387,0.02350027,1.29218,2.750412,null,null,,
351,temporal,TRUE,FALSE,ao-congruent,0,0,0.7157319,impact_large_wood (UnityEngine.GameObject),impact_large_wood (UnityEngine.GameObject),2.3206408,null,null,0.175,1,-0.01012383,1.098384,2.828535,-0.01012383,1.098384,2.828535,0.008686122,1.313338,2.740505,null,null,,
115,temporal,TRUE,FALSE,ao-incongruent,0,0,-69.13202,slide_large_metal (UnityEngine.GameObject),impact_large_wood (UnityEngine.GameObject),3.9978105,null,null,0.175,0,0.02860928,1.099147,2.883074,0.02860928,1.099147,2.883074,0,0,0,null,null,,
128,temporal,TRUE,FALSE,ao-incongruent,0,0,-69.21159,slide_large_wood (UnityEngine.GameObject),impact_large_metal (UnityEngine.GameObject),3.9650465,null,null,0.175,0,0.02182479,1.094396,2.882692,0.02182479,1.094396,2.882692,0,0,0,null,null,,
131,temporal,TRUE,FALSE,ao-incongruent,0,0,-69.20398,slide_large_wood (UnityEngine.GameObject),impact_large_metal (UnityEngine.GameObject),3.9653561,null,null,0.175,0,0.0306391,1.095033,2.883135,0.0306391,1.095033,2.883135,0,0,0,null,null,,
134,temporal,TRUE,FALSE,ao-incongruent,0,0,-69.17228,slide_large_wood (UnityEngine.GameObject),impact_large_metal (UnityEngine.GameObject),3.9761932,null,null,0.175,0,0.03726117,1.095913,2.880569,0.03726117,1.095913,2.880569,0,0,0,null,null,,
139,temporal,TRUE,FALSE,ao-incongruent,0,0,0.8223435,slide_large_metal (UnityEngine.GameObject),impact_large_wood (UnityEngine.GameObject),2.2099287,null,null,0.175,1,0.02567105,1.096195,2.880102,0.02567105,1.096195,2.880102,0.03755531,0.4302095,3.005476,null,null,,
145,temporal,TRUE,FALSE,ao-incongruent,0,0,0.9293592,slide_large_wood (UnityEngine.GameObject),impact_large_metal (UnityEngine.GameObject),2.4107448,null,null,0.175,1,0.01144256,1.094715,2.880766,0.01144256,1.094715,2.880766,0.03883243,0.4276923,3.005603,null,null,,
160,temporal,TRUE,FALSE,ao-incongruent,0,0,-1.294222,slide_large_wood (UnityEngine.GameObject),impact_large_metal (UnityEngine.GameObject),2.1000955,null,null,0.175,1,0.02248697,1.093013,2.879884,0.02248697,1.093013,2.879884,-0.03292686,0.4122049,3.007696,null,null,,
163,temporal,TRUE,FALSE,ao-incongruent,0,0,-1.158427,slide_large_wood (UnityEngine.GameObject),impact_large_metal (UnityEngine.GameObject),2.1875998,null,null,0.175,1,0.01593092,1.091916,2.880381,0.01593092,1.091916,2.880381,-0.02995226,0.4200209,3.007208,null,null,,
165,temporal,TRUE,FALSE,ao-incongruent,0,0,-0.8035691,impact_large_metal (UnityEngine.GameObject),slide_large_wood (UnityEngine.GameObject),2.4572747,null,null,0.175,1,0.01694003,1.091217,2.883753,0.01694003,1.092217,2.883753,0.009148499,0.4295966,3.008226,null,null,,
172,temporal,TRUE,FALSE,ao-incongruent,0,0,-0.7908052,impact_large_metal (UnityEngine.GameObject),slide_large_wood (UnityEngine.GameObject),1.9987245,null,null,0.175,1,0.02054136,1.09208,2.890643,0.02054136,1.093081,2.890643,0.007531785,0.4200799,3.009316,null,null,,
176,temporal,TRUE,FALSE,ao-incongruent,0,0,-69.34779,impact_large_metal (UnityEngine.GameObject),slide_large_wood (UnityEngine.GameObject),3.7404434,null,null,0.175,0,0.02203628,1.089211,2.89237,0.02203628,1.090211,2.89237,0,0,0,null,null,,
180,temporal,TRUE,FALSE,ao-incongruent,0,0,-69.18445,slide_large_metal (UnityEngine.GameObject),impact_large_wood (UnityEngine.GameObject),3.9888234,null,null,0.175,0,0.03133637,1.09642,2.883817,0.03133637,1.09642,2.883817,0,0,0,null,null,,
281,temporal,TRUE,FALSE,ao-incongruent,0,0,-68.56956,slide_large_wood (UnityEngine.GameObject),impact_large_metal (UnityEngine.GameObject),3.9767574,null,null,0.175,0,0.02226483,1.108833,2.824902,0.02226483,1.108833,2.824902,0,0,0,null,null,,
292,temporal,TRUE,FALSE,ao-incongruent,0,0,-68.56662,slide_large_metal (UnityEngine.GameObject),impact_large_wood (UnityEngine.GameObject),3.9866343,null,null,0.175,0,0.001152719,1.109048,2.825111,0.001152719,1.109048,2.825111,0,0,0,null,null,,
295,temporal,TRUE,FALSE,ao-incongruent,0,0,-68.59145,slide_large_wood (UnityEngine.GameObject),impact_large_metal (UnityEngine.GameObject),3.966635,null,null,0.175,0,0.03945334,1.108314,2.826567,0.03945334,1.108314,2.826567,0,0,0,null,null,,
297,temporal,TRUE,FALSE,ao-incongruent,0,0,-68.53813,slide_large_metal (UnityEngine.GameObject),impact_large_wood (UnityEngine.GameObject),3.9990801,null,null,0.175,0,0.0300479,1.111736,2.827663,0.0300479,1.111736,2.827663,0,0,0,null,null,,
299,temporal,TRUE,FALSE,ao-incongruent,0,0,-6.767875,slide_large_wood (UnityEngine.GameObject),impact_large_metal (UnityEngine.GameObject),2.2637517,null,null,0.175,1,0.001243971,1.107163,2.824868,0.001243971,1.107163,2.824868,-0.3384897,1.371255,2.678331,null,null,,
304,temporal,TRUE,FALSE,ao-incongruent,0,0,-68.35818,slide_large_metal (UnityEngine.GameObject),impact_large_wood (UnityEngine.GameObject),3.99859,null,null,0.175,0,0.01564756,1.11959,2.821699,0.01564756,1.11959,2.821699,0,0,0,null,null,,
317,temporal,TRUE,FALSE,ao-incongruent,0,0,-3.833694,impact_large_metal (UnityEngine.GameObject),slide_large_wood (UnityEngine.GameObject),1.9328426,null,null,0.175,1,0.01240432,1.096069,2.831412,0.01240432,1.09707,2.831412,-0.180727,1.315597,2.723018,null,null,,
320,temporal,TRUE,FALSE,ao-incongruent,0,0,68.81204,slide_large_wood (UnityEngine.GameObject),impact_large_metal (UnityEngine.GameObject),3.97536,null,null,0.175,0,-0.04353401,1.103997,2.847718,-0.04353401,1.103997,2.847718,0,0,0,null,null,,
336,temporal,TRUE,FALSE,ao-incongruent,0,0,-0.9134313,slide_large_wood (UnityEngine.GameObject),impact_large_metal (UnityEngine.GameObject),2.5019378,null,null,0.175,1,-0.01945145,1.104106,2.828615,-0.01945145,1.104106,2.828615,-0.04974628,1.323463,2.731215,null,null,,
338,temporal,TRUE,FALSE,ao-incongruent,0,0,0.7735435,impact_large_metal (UnityEngine.GameObject),slide_large_wood (UnityEngine.GameObject),1.967187,null,null,0.175,1,-0.02831214,1.098784,2.832061,-0.02831214,1.099784,2.832061,-0.008316977,1.32242,2.735695,null,null,,
343,temporal,TRUE,FALSE,ao-incongruent,0,0,68.77183,slide_large_wood (UnityEngine.GameObject),impact_large_metal (UnityEngine.GameObject),3.96513,null,null,0.175,0,-0.01947349,1.100112,2.832061,-0.01947349,1.100112,2.832061,0,0,0,null,null,,
347,temporal,TRUE,FALSE,ao-incongruent,0,0,0.8360308,impact_large_metal (UnityEngine.GameObject),slide_large_wood (UnityEngine.GameObject),2.3232964,null,null,0.175,1,-0.02433931,1.098554,2.828937,-0.02433931,1.099554,2.828937,0.006151819,1.308987,2.743071,null,null,,
106,temporal,TRUE,FALSE,ao-congruent,0,0,-69.23632,impact_large_metal (UnityEngine.GameObject),impact_large_metal (UnityEngine.GameObject),3.9649653,null,null,0.2,0,0.03515381,1.094887,2.887608,0.03515381,1.094887,2.887608,0,0,0,null,null,,
107,temporal,TRUE,FALSE,ao-congruent,0,0,-2.247596,impact_large_metal (UnityEngine.GameObject),impact_large_metal (UnityEngine.GameObject),2.7993608,null,null,0.2,1,0.0333696,1.093678,2.888544,0.0333696,1.093678,2.888544,-0.08414875,0.4129096,3.002777,null,null,,
108,temporal,TRUE,FALSE,ao-congruent,0,0,-69.13187,slide_large_wood (UnityEngine.GameObject),slide_large_wood (UnityEngine.GameObject),3.7307313,null,null,0.2,0,0.02395204,1.098008,2.882727,0.02395204,1.099008,2.882727,0,0,0,null,null,,
129,temporal,TRUE,FALSE,ao-congruent,0,0,3.921514,impact_large_wood (UnityEngine.GameObject),impact_large_wood (UnityEngine.GameObject),2.1679434,null,null,0.2,1,0.03263321,1.096035,2.880056,0.03263321,1.096035,2.880056,0.2486682,0.3728304,2.991139,null,null,,
141,temporal,TRUE,FALSE,ao-congruent,0,0,-69.21777,slide_large_wood (UnityEngine.GameObject),slide_large_wood (UnityEngine.GameObject),3.7206426,null,null,0.2,0,0.022772,1.093522,2.883955,0.022772,1.094522,2.883955,0,0,0,null,null,,
151,temporal,TRUE,FALSE,ao-congruent,0,0,-5.327596,impact_large_wood (UnityEngine.GameObject),impact_large_wood (UnityEngine.GameObject),2.3228956,null,null,0.2,1,0.0305869,1.093021,2.883876,0.0305869,1.093021,2.883876,-0.2625324,0.4044201,2.986724,null,null,,
155,temporal,TRUE,FALSE,ao-congruent,0,0,-69.2246,slide_large_metal (UnityEngine.GameObject),slide_large_metal (UnityEngine.GameObject),3.7310702,null,null,0.2,0,0.03720259,1.092898,2.883195,0.03720259,1.093898,2.883195,0,0,0,null,null,,
166,temporal,TRUE,FALSE,ao-congruent,0,0,-0.7922885,slide_large_wood (UnityEngine.GameObject),slide_large_wood (UnityEngine.GameObject),2.5651974,null,null,0.2,1,0.01766816,1.091291,2.884494,0.01766816,1.092291,2.884494,0.009721088,0.4408777,3.00706,null,null,,
167,temporal,TRUE,FALSE,ao-congruent,0,0,-0.7415132,impact_large_wood (UnityEngine.GameObject),impact_large_wood (UnityEngine.GameObject),2.9330481,null,null,0.2,1,0.01466034,1.097969,2.893931,0.01466034,1.097969,2.893931,0.009352331,0.414353,3.009708,null,null,,
168,temporal,TRUE,FALSE,ao-congruent,0,0,-69.32123,slide_large_metal (UnityEngine.GameObject),slide_large_metal (UnityEngine.GameObject),3.731823,null,null,0.2,0,0.01461051,1.092462,2.896972,0.01461051,1.093462,2.896972,0,0,0,null,null,,
174,temporal,TRUE,FALSE,ao-congruent,0,0,-3.941487,impact_large_metal (UnityEngine.GameObject),impact_large_metal (UnityEngine.GameObject),2.7097609,null,null,0.2,1,0.02257884,1.091158,2.893502,0.02257884,1.091158,2.893502,-0.1933007,0.3938882,2.994316,null,null,,
177,temporal,TRUE,FALSE,ao-congruent,0,0,-69.29735,slide_large_metal (UnityEngine.GameObject),slide_large_metal (UnityEngine.GameObject),3.7322691,null,null,0.2,0,0.01962327,1.091065,2.889594,0.01962327,1.092065,2.889594,0,0,0,null,null,,
282,temporal,TRUE,FALSE,ao-congruent,0,0,-68.44705,impact_large_metal (UnityEngine.GameObject),impact_large_metal (UnityEngine.GameObject),3.9772937,null,null,0.2,0,0.02518945,1.114611,2.821843,0.02518945,1.114611,2.821843,0,0,0,null,null,,
287,temporal,TRUE,FALSE,ao-congruent,0,0,-9.013321,impact_large_wood (UnityEngine.GameObject),impact_large_wood (UnityEngine.GameObject),2.808781,null,null,0.2,1,0.02241459,1.126193,2.830345,0.02241459,1.126193,2.830345,-0.425686,1.449376,2.628318,null,null,,
291,temporal,TRUE,FALSE,ao-congruent,0,0,-16.15445,impact_large_wood (UnityEngine.GameObject),impact_large_wood (UnityEngine.GameObject),2.8094378,null,null,0.2,1,0.03239847,1.110598,2.826489,0.03239847,1.110598,2.826489,-0.7748012,1.400429,2.576555,null,null,,
294,temporal,TRUE,FALSE,ao-congruent,0,0,-68.59982,slide_large_wood (UnityEngine.GameObject),slide_large_wood (UnityEngine.GameObject),3.7307027,null,null,0.2,0,0.04485404,1.107671,2.828613,0.04485404,1.108671,2.828613,0,0,0,null,null,,
302,temporal,TRUE,FALSE,ao-congruent,0,0,-68.8319,impact_large_metal (UnityEngine.GameObject),impact_large_metal (UnityEngine.GameObject),3.9753629,null,null,0.2,0,0.02490873,1.102274,2.846423,0.02490873,1.102274,2.846423,0,0,0,null,null,,
303,temporal,TRUE,FALSE,ao-congruent,0,0,-68.7764,slide_large_metal (UnityEngine.GameObject),slide_large_metal (UnityEngine.GameObject),3.7312474,null,null,0.2,0,0.01478444,1.097775,2.829315,0.01478444,1.098775,2.829315,0,0,0,null,null,,
308,temporal,TRUE,FALSE,ao-congruent,0,0,-68.72217,slide_large_metal (UnityEngine.GameObject),slide_large_metal (UnityEngine.GameObject),3.7133826,null,null,0.2,0,0.01110349,1.101439,2.830825,0.01110349,1.102439,2.830825,0,0,0,null,null,,
315,temporal,TRUE,FALSE,ao-congruent,0,0,-68.77208,slide_large_wood (UnityEngine.GameObject),slide_large_wood (UnityEngine.GameObject),3.7212471,null,null,0.2,0,0.007935688,1.098541,2.830682,0.007935688,1.099541,2.830682,0,0,0,null,null,,
316,temporal,TRUE,FALSE,ao-congruent,0,0,11.19294,impact_large_metal (UnityEngine.GameObject),impact_large_metal (UnityEngine.GameObject),2.6531382,null,null,0.2,1,-0.03248457,1.101315,2.841215,-0.03248457,1.101315,2.841215,0.5402743,1.314286,2.689668,null,null,,
323,temporal,TRUE,FALSE,ao-congruent,0,0,68.84366,impact_large_wood (UnityEngine.GameObject),impact_large_wood (UnityEngine.GameObject),3.9868828,null,null,0.2,0,-0.05059767,1.103382,2.85068,-0.05059767,1.103382,2.85068,0,0,0,null,null,,
329,temporal,TRUE,FALSE,ao-congruent,0,0,69.23891,slide_large_metal (UnityEngine.GameObject),slide_large_metal (UnityEngine.GameObject),3.7300362,null,null,0.2,0,-0.01957805,1.087103,2.870255,-0.01957805,1.088103,2.870255,0,0,0,null,null,,
330,temporal,TRUE,FALSE,ao-congruent,0,0,6.554246,slide_large_wood (UnityEngine.GameObject),slide_large_wood (UnityEngine.GameObject),2.2998456,null,null,0.2,1,-0.05603881,1.095374,2.865295,-0.05603881,1.096374,2.865295,0.2719077,1.38638,2.676542,null,null,,
118,temporal,TRUE,FALSE,ao-incongruent,0,0,-69.07026,impact_large_metal (UnityEngine.GameObject),slide_large_wood (UnityEngine.GameObject),3.7329977,null,null,0.2,0,0.03117884,1.099595,2.877522,0.03117884,1.100595,2.877522,0,0,0,null,null,,
119,temporal,TRUE,FALSE,ao-incongruent,0,0,-69.1071,slide_large_wood (UnityEngine.GameObject),impact_large_metal (UnityEngine.GameObject),3.9760221,null,null,0.2,0,0.02394769,1.098984,2.878925,0.02394769,1.098984,2.878925,0,0,0,null,null,,
120,temporal,TRUE,FALSE,ao-incongruent,0,0,1.362,slide_large_metal (UnityEngine.GameObject),impact_large_wood (UnityEngine.GameObject),3.22217,null,null,0.2,1,0.02792655,1.098923,2.879283,0.02792655,1.098923,2.879283,0.09063845,0.3911622,3.004296,null,null,,
121,temporal,TRUE,FALSE,ao-incongruent,0,0,-69.15743,slide_large_wood (UnityEngine.GameObject),impact_large_metal (UnityEngine.GameObject),3.9751501,null,null,0.2,0,0.03482059,1.097411,2.882293,0.03482059,1.097411,2.882293,0,0,0,null,null,,
126,temporal,TRUE,FALSE,ao-incongruent,0,0,-69.12463,slide_large_wood (UnityEngine.GameObject),impact_large_metal (UnityEngine.GameObject),3.9764685,null,null,0.2,0,0.03230319,1.097514,2.877634,0.03230319,1.097514,2.877634,0,0,0,null,null,,
140,temporal,TRUE,FALSE,ao-incongruent,0,0,0.8816,slide_large_wood (UnityEngine.GameObject),impact_large_metal (UnityEngine.GameObject),2.3427907,null,null,0.2,1,0.02474937,1.096135,2.88119,0.02474937,1.096135,2.88119,0.04750806,0.4230384,3.00524,null,null,,
142,temporal,TRUE,FALSE,ao-incongruent,0,0,0.8902143,impact_large_metal (UnityEngine.GameObject),slide_large_wood (UnityEngine.GameObject),1.9445281,null,null,0.2,1,0.02269234,1.092613,2.885395,0.02269234,1.093613,2.885395,0.05056786,0.4448076,3.002806,null,null,,
146,temporal,TRUE,FALSE,ao-incongruent,0,0,0.9851648,impact_large_metal (UnityEngine.GameObject),slide_large_wood (UnityEngine.GameObject),2.0413878,null,null,0.2,1,0.01240016,1.092756,2.883098,0.01240016,1.093756,2.883098,0.04659887,0.420562,3.00557,null,null,,
153,temporal,TRUE,FALSE,ao-incongruent,0,0,-5.603046,slide_large_metal (UnityEngine.GameObject),impact_large_wood (UnityEngine.GameObject),2.5327344,null,null,0.2,1,0.03195635,1.093035,2.885115,0.03195635,1.093035,2.885115,-0.276634,0.4043311,2.985397,null,null,,
159,temporal,TRUE,FALSE,ao-incongruent,0,0,-1.272878,slide_large_metal (UnityEngine.GameObject),impact_large_wood (UnityEngine.GameObject),2.5869899,null,null,0.2,1,0.02129294,1.093577,2.879501,0.02129294,1.093577,2.879501,-0.03251481,0.4131144,3.007646,null,null,,
161,temporal,TRUE,FALSE,ao-incongruent,0,0,-1.404442,slide_large_wood (UnityEngine.GameObject),impact_large_metal (UnityEngine.GameObject),2.6315842,null,null,0.2,1,0.01861497,1.092629,2.880317,0.01861497,1.092629,2.880317,-0.04523674,0.4203112,3.005732,null,null,,
184,temporal,TRUE,FALSE,ao-incongruent,0,0,5.064227,slide_large_wood (UnityEngine.GameObject),impact_large_metal (UnityEngine.GameObject),2.3097175,null,null,0.2,1,0.04667958,1.09877,2.878119,0.04667958,1.09877,2.878119,0.3280673,0.3241123,2.98842,null,null,,
283,temporal,TRUE,FALSE,ao-incongruent,0,0,-6.51069,impact_large_metal (UnityEngine.GameObject),slide_large_wood (UnityEngine.GameObject),2.3316552,null,null,0.2,1,0.005015485,1.114109,2.821726,0.005015485,1.115109,2.821726,-0.3104402,1.495632,2.614506,null,null,,
288,temporal,TRUE,FALSE,ao-incongruent,0,0,-68.48255,slide_large_wood (UnityEngine.GameObject),impact_large_metal (UnityEngine.GameObject),3.975547,null,null,0.2,0,0.01478182,1.11363,2.824553,0.01478182,1.11363,2.824553,0,0,0,null,null,,
289,temporal,TRUE,FALSE,ao-incongruent,0,0,-68.55476,slide_large_metal (UnityEngine.GameObject),impact_large_wood (UnityEngine.GameObject),3.9879614,null,null,0.2,0,0.009123257,1.108719,2.822542,0.009123257,1.108719,2.822542,0,0,0,null,null,,
300,temporal,TRUE,FALSE,ao-incongruent,0,0,-6.912848,slide_large_wood (UnityEngine.GameObject),impact_large_metal (UnityEngine.GameObject),3.1197209,null,null,0.2,1,-0.002527652,1.105876,2.824444,-0.002527652,1.105876,2.824444,-0.3503752,1.361076,2.682646,null,null,,
306,temporal,TRUE,FALSE,ao-incongruent,0,0,-68.76915,slide_large_metal (UnityEngine.GameObject),impact_large_wood (UnityEngine.GameObject),3.9873005,null,null,0.2,0,0.00509015,1.100184,2.831917,0.00509015,1.100184,2.831917,0,0,0,null,null,,
319,temporal,TRUE,FALSE,ao-incongruent,0,0,68.76084,slide_large_wood (UnityEngine.GameObject),impact_large_metal (UnityEngine.GameObject),3.9790602,null,null,0.2,0,-0.04616623,1.106339,2.846167,-0.04616623,1.106339,2.846167,0,0,0,null,null,,
324,temporal,TRUE,FALSE,ao-incongruent,0,0,15.63385,slide_large_wood (UnityEngine.GameObject),impact_large_metal (UnityEngine.GameObject),2.2333284,null,null,0.2,1,-0.05174198,1.103261,2.85034,-0.05174198,1.103261,2.85034,0.7498884,1.266646,2.65816,null,null,,
328,temporal,TRUE,FALSE,ao-incongruent,0,0,15.97829,impact_large_metal (UnityEngine.GameObject),slide_large_wood (UnityEngine.GameObject),2.2095103,null,null,0.2,1,-0.05829835,1.09986,2.854347,-0.05829835,1.10086,2.854347,0.7651203,1.23565,2.670948,null,null,,
333,temporal,TRUE,FALSE,ao-incongruent,0,0,68.72119,slide_large_metal (UnityEngine.GameObject),impact_large_wood (UnityEngine.GameObject),3.9971822,null,null,0.2,0,-0.01736126,1.101597,2.828486,-0.01736126,1.101597,2.828486,0,0,0,null,null,,
334,temporal,TRUE,FALSE,ao-incongruent,0,0,68.65346,slide_large_wood (UnityEngine.GameObject),impact_large_metal (UnityEngine.GameObject),3.9649844,null,null,0.2,0,-0.001303299,1.10531,2.828183,-0.001303299,1.10531,2.828183,0,0,0,null,null,,
340,temporal,TRUE,FALSE,ao-incongruent,0,0,0.9697499,slide_large_wood (UnityEngine.GameObject),impact_large_metal (UnityEngine.GameObject),2.8666914,null,null,0.2,1,-0.01415489,1.104581,2.83332,-0.01415489,1.104581,2.83332,0.02164255,1.318926,2.736291,null,null,,
352,temporal,TRUE,FALSE,ao-incongruent,0,0,0.7129927,impact_large_metal (UnityEngine.GameObject),slide_large_wood (UnityEngine.GameObject),2.3350684,null,null,0.2,1,-0.001191002,1.095169,2.834303,-0.001191002,1.096169,2.834303,0.015509,1.306544,2.74349,null,null,,