Trialnum, Trialtype, Trial_Valid, Trial_Paused, Congruency_Type, Spatialoffset, Distance Biasing, Angle Biasing, Audio_Stim, Visual_Stim, Responsetime, Correct_Bias_Direction, Same_Location_Judgment, Temporaloffset, Simultaneity_Judgment, visual_x, visual_y, visual_z, audio_x, audio_y, audio_z, response_x, response_y, response_z, baseline_spatial_error, baseline_temporal_same
1,spatial,True,False,ao-incongruent,0,0,0.9198356,slide_large_metal (UnityEngine.GameObject),impact_large_wood (UnityEngine.GameObject),3.0599038,1,1,0,null,-0.006420371,1.218411,2.982054,-0.006420371,1.168411,2.982054,0.0008330371,1.072419,2.847975,0.9198356,null,
2,spatial,True,False,ao-congruent,0,0,-1.135911,slide_large_wood (UnityEngine.GameObject),slide_large_wood (UnityEngine.GameObject),2.8992184,0,1,0,null,-0.007614516,1.214693,2.997562,-0.007614516,1.165694,2.997562,-0.03895878,1.042707,2.853387,-1.135911,null,
3,spatial,True,False,ao-congruent,16,0,1.568603,slide_large_wood (UnityEngine.GameObject),slide_large_wood (UnityEngine.GameObject),2.3441062,1,0,0,null,-0.0107384,1.214165,2.999318,-0.8376507,1.165165,2.883103,-0.7339447,1.054578,2.7535,null,null,
4,spatial,True,False,ao-congruent,16,0,4.94926,slide_large_wood (UnityEngine.GameObject),slide_large_wood (UnityEngine.GameObject),2.5226802,1,0,0,null,-0.007954282,1.211771,3.006802,0.818958,1.162771,2.890587,0.5244315,1.073077,2.798202,null,null,
5,spatial,True,False,ao-incongruent,16,0,-1.843238,impact_large_metal (UnityEngine.GameObject),slide_large_wood (UnityEngine.GameObject),2.321938,0,0,0,null,-0.008146781,1.210507,3.011152,0.8187655,1.161507,2.894937,0.804989,1.233775,2.660364,null,null,
6,spatial,True,False,ao-congruent,8,0,5.079988,slide_large_wood (UnityEngine.GameObject),slide_large_wood (UnityEngine.GameObject),2.2950649,1,1,0,null,-0.005671254,1.210357,3.01184,0.4118481,1.161357,2.982644,0.1251322,1.009856,2.855185,null,null,
7,spatial,True,False,ao-incongruent,16,0,1.136944,impact_large_metal (UnityEngine.GameObject),slide_large_wood (UnityEngine.GameObject),2.6012976,1,0,0,null,-0.004353906,1.209361,3.016093,0.8225584,1.160362,2.899878,0.759417,1.039892,2.750679,null,null,
8,spatial,True,False,ao-congruent,8,0,-3.948635,impact_large_metal (UnityEngine.GameObject),impact_large_metal (UnityEngine.GameObject),2.5430179,0,0,0,null,-0.007042876,1.210892,3.014312,-0.4245622,1.160892,2.985116,-0.6081074,0.9965996,2.808486,null,null,
9,spatial,True,False,ao-incongruent,12,0,7.989965,slide_large_metal (UnityEngine.GameObject),impact_large_wood (UnityEngine.GameObject),2.9096483,1,0,0,null,-0.004703939,1.210772,3.014005,0.6190311,1.160772,2.948448,0.1663244,0.9958696,2.855527,null,null,
10,spatial,True,False,ao-congruent,12,0,3.284259,slide_large_metal (UnityEngine.GameObject),slide_large_metal (UnityEngine.GameObject),3.3557706,1,0,0,null,-0.004303134,1.209084,3.018172,0.6194319,1.160084,2.952615,0.4232939,0.9536758,2.843996,null,null,
11,spatial,True,False,ao-congruent,12,0,10.81609,impact_large_wood (UnityEngine.GameObject),impact_large_wood (UnityEngine.GameObject),2.0551391,1,1,0,null,-0.004428455,1.211502,3.016589,0.6193066,1.161502,2.951032,0.01337142,0.9972878,2.869578,null,null,
12,spatial,True,False,ao-congruent,4,0,-1.237962,slide_large_metal (UnityEngine.GameObject),slide_large_metal (UnityEngine.GameObject),3.4657929,0,0,0,null,-0.006822151,1.209436,3.018528,-0.2160916,1.160436,3.01122,-0.2065036,1.076625,2.827235,null,null,
13,spatial,True,False,ao-congruent,8,0,5.10227,slide_large_metal (UnityEngine.GameObject),slide_large_metal (UnityEngine.GameObject),2.2544933,1,1,0,null,-0.007005722,1.209525,3.019231,0.4105136,1.160526,2.990036,0.1227077,1.051667,2.842731,null,null,
14,spatial,True,False,ao-congruent,4,0,-1.552173,slide_large_wood (UnityEngine.GameObject),slide_large_wood (UnityEngine.GameObject),2.6458023,0,0,0,null,-0.006994634,1.209844,3.019476,-0.216264,1.160844,3.012168,-0.2563375,1.051042,2.830277,null,null,
15,spatial,True,False,ao-congruent,16,0,8.18813,slide_large_metal (UnityEngine.GameObject),slide_large_metal (UnityEngine.GameObject),2.2878478,1,0,0,null,-0.00537228,1.217108,3.009362,0.82154,1.168108,2.893147,0.3509034,1.101882,2.805893,null,null,
16,spatial,True,False,ao-incongruent,8,0,6.513882,slide_large_wood (UnityEngine.GameObject),impact_large_metal (UnityEngine.GameObject),2.099399,1,1,0,null,-0.003517035,1.219278,3.007297,0.4140023,1.169278,2.978101,0.04941942,1.059498,2.847294,null,null,
17,spatial,True,False,ao-congruent,0,0,-3.482284,impact_large_wood (UnityEngine.GameObject),impact_large_wood (UnityEngine.GameObject),2.4101391,0,0,0,null,-0.003371884,1.218586,3.008145,-0.003371884,1.168586,3.008145,-0.1640473,1.233295,2.768588,-3.482284,null,
18,spatial,True,False,ao-congruent,4,0,2.75129,impact_large_wood (UnityEngine.GameObject),impact_large_wood (UnityEngine.GameObject),2.0086149,1,1,0,null,-0.003381936,1.218758,3.00809,-0.2126513,1.168758,3.000782,-0.07084674,1.155483,2.816157,null,null,
19,spatial,True,False,ao-congruent,16,0,7.510631,impact_large_wood (UnityEngine.GameObject),impact_large_wood (UnityEngine.GameObject),2.3426066,1,0,0,null,-0.003869463,1.217584,3.009924,-0.8307818,1.167584,2.893709,-0.3943655,1.148906,2.787521,null,null,
20,spatial,True,False,ao-congruent,8,0,7.587498,impact_large_wood (UnityEngine.GameObject),impact_large_wood (UnityEngine.GameObject),2.0446248,1,1,0,null,-0.004196828,1.217327,3.010337,0.4133225,1.167327,2.981142,-0.00838369,1.142841,2.825906,null,null,
21,spatial,True,False,ao-incongruent,8,0,7.406316,slide_large_wood (UnityEngine.GameObject),impact_large_metal (UnityEngine.GameObject),2.6978534,1,1,0,null,-0.003813262,1.217044,3.011373,0.4137061,1.167044,2.982177,0.0009174097,1.096429,2.840683,null,null,
22,spatial,True,False,ao-incongruent,12,0,6.954997,slide_large_metal (UnityEngine.GameObject),impact_large_wood (UnityEngine.GameObject),2.5204565,1,0,0,null,-0.003714707,1.217639,3.012383,0.6200204,1.167639,2.946826,0.2224307,1.087297,2.822481,null,null,
23,spatial,True,False,ao-congruent,0,0,-1.110651,slide_large_metal (UnityEngine.GameObject),slide_large_metal (UnityEngine.GameObject),1.8766468,0,1,0,null,-0.003331653,1.219215,3.011239,-0.003331653,1.170215,3.011239,-0.01242736,1.067221,2.848463,-1.110651,null,
24,spatial,True,False,ao-congruent,12,0,1.227804,impact_large_metal (UnityEngine.GameObject),impact_large_metal (UnityEngine.GameObject),2.2531762,1,0,0,null,-0.002412363,1.216875,3.011822,-0.6261474,1.166875,2.946265,-0.5597278,1.051858,2.801304,null,null,
25,spatial,True,False,ao-incongruent,0,0,-5.427839,impact_large_metal (UnityEngine.GameObject),slide_large_wood (UnityEngine.GameObject),1.821429,0,0,0,null,-0.005063153,1.213506,3.014256,-0.005063153,1.164506,3.014256,-0.2871456,1.055543,2.825995,-5.427839,null,
26,spatial,True,False,ao-incongruent,8,0,2.97065,slide_large_wood (UnityEngine.GameObject),impact_large_metal (UnityEngine.GameObject),2.334194,1,0,0,null,-0.004507892,1.214617,3.014117,-0.4220272,1.164617,2.984921,-0.2521602,1.013202,2.84215,null,null,
27,spatial,True,False,ao-congruent,4,0,3.694221,impact_large_metal (UnityEngine.GameObject),impact_large_metal (UnityEngine.GameObject),1.7563768,1,1,0,null,-0.005617662,1.214447,3.014322,0.2036517,1.164447,3.007014,0.002827881,1.030922,2.860373,null,null,
28,spatial,True,False,ao-congruent,4,0,4.216494,impact_large_metal (UnityEngine.GameObject),impact_large_metal (UnityEngine.GameObject),1.7768976,1,1,0,null,-0.005666733,1.214613,3.014539,0.2036027,1.164613,3.007231,-0.02499406,1.065432,2.847815,null,null,
29,spatial,True,False,ao-incongruent,8,0,5.22326,slide_large_metal (UnityEngine.GameObject),impact_large_wood (UnityEngine.GameObject),2.4649707,1,1,0,null,-0.006527343,1.21415,3.015567,-0.4240467,1.16415,2.986371,-0.1288887,1.043543,2.844618,null,null,
30,spatial,True,False,ao-incongruent,8,0,4.4066,impact_large_metal (UnityEngine.GameObject),slide_large_wood (UnityEngine.GameObject),2.7101246,1,0,0,null,-0.006225379,1.213239,3.015378,0.411294,1.164239,2.986182,0.1625214,1.101244,2.823922,null,null,
31,spatial,True,False,ao-incongruent,4,0,4.293955,impact_large_metal (UnityEngine.GameObject),slide_large_wood (UnityEngine.GameObject),2.088776,1,1,0,null,-0.006166387,1.213284,3.016208,0.203103,1.164284,3.0089,-0.02870493,1.094252,2.838722,null,null,
32,spatial,True,False,ao-incongruent,16,0,2.077919,slide_large_metal (UnityEngine.GameObject),impact_large_wood (UnityEngine.GameObject),2.6446212,1,0,0,null,-0.006761326,1.217195,3.018664,0.820151,1.167195,2.902449,0.6842619,1.092506,2.755997,null,null,
33,spatial,True,False,ao-incongruent,4,0,1.178358,slide_large_wood (UnityEngine.GameObject),impact_large_metal (UnityEngine.GameObject),2.6652581,1,0,0,null,-0.008706844,1.216953,3.01507,-0.2179762,1.166953,3.007762,-0.1930045,1.04707,2.837478,null,null,
34,spatial,True,False,ao-congruent,4,0,5.787095,slide_large_wood (UnityEngine.GameObject),slide_large_wood (UnityEngine.GameObject),1.9322288,1,1,0,null,-0.006440195,1.216524,3.013946,0.2028292,1.167524,3.006639,-0.1130537,1.01297,2.855392,null,null,
35,spatial,True,False,ao-incongruent,8,0,2.284991,slide_large_metal (UnityEngine.GameObject),impact_large_wood (UnityEngine.GameObject),2.1909082,1,0,0,null,-0.007210827,1.217813,3.013159,-0.4247302,1.167814,2.983963,-0.2948434,1.010267,2.839,null,null,
36,spatial,True,False,ao-incongruent,8,0,2.722036,slide_large_wood (UnityEngine.GameObject),impact_large_metal (UnityEngine.GameObject),2.0225529,1,0,0,null,-0.007272564,1.217746,3.013264,-0.4247919,1.167746,2.984069,-0.2691918,1.016384,2.839573,null,null,
37,spatial,True,False,ao-incongruent,4,0,3.524423,slide_large_wood (UnityEngine.GameObject),impact_large_metal (UnityEngine.GameObject),2.2755508,1,1,0,null,-0.005682598,1.214323,3.014056,0.2035868,1.164323,3.006749,0.00736083,0.8303947,2.920774,null,null,
38,spatial,True,False,ao-incongruent,12,0,2.40485,slide_large_wood (UnityEngine.GameObject),impact_large_metal (UnityEngine.GameObject),2.2079427,1,0,0,null,-0.007467934,1.216812,3.012586,-0.631203,1.166812,2.947029,-0.4843745,1.003678,2.823054,null,null,
39,spatial,True,False,ao-congruent,8,0,2.188654,slide_large_metal (UnityEngine.GameObject),slide_large_metal (UnityEngine.GameObject),1.9222299,1,0,0,null,-0.006923312,1.216717,3.010807,0.410596,1.167717,2.981611,0.288402,1.051834,2.826992,null,null,
40,spatial,True,False,ao-congruent,12,0,4.979096,impact_large_wood (UnityEngine.GameObject),impact_large_wood (UnityEngine.GameObject),3.5212407,1,0,0,null,-0.006388652,1.21724,3.012687,-0.6301237,1.16724,2.94713,-0.3389257,1.077675,2.814378,null,null,
41,spatial,True,False,ao-congruent,16,0,-1.285575,slide_large_metal (UnityEngine.GameObject),slide_large_metal (UnityEngine.GameObject),1.9425384,0,0,0,null,-0.007751449,1.216352,3.011987,-0.8346637,1.167352,2.895772,-0.8183473,1.06951,2.724177,null,null,
42,spatial,True,False,ao-incongruent,4,0,2.480492,slide_large_wood (UnityEngine.GameObject),impact_large_metal (UnityEngine.GameObject),2.9207348,1,1,0,null,-0.00657721,1.21823,3.010951,-0.2158466,1.16823,3.003643,-0.08461069,1.035009,2.851399,null,null,
43,spatial,True,False,ao-incongruent,4,0,2.998721,slide_large_metal (UnityEngine.GameObject),impact_large_wood (UnityEngine.GameObject),1.9774233,1,1,0,null,-0.00638548,1.218619,3.010088,0.2028839,1.168619,3.00278,0.04265066,1.062087,2.847149,null,null,
44,spatial,True,False,ao-incongruent,4,0,1.630629,slide_large_wood (UnityEngine.GameObject),impact_large_metal (UnityEngine.GameObject),1.8534266,1,1,0,null,-0.006514424,1.218481,3.010519,-0.2157838,1.168481,3.003211,-0.1420788,1.065661,2.83666,null,null,
45,spatial,True,False,ao-incongruent,16,0,-2.974009,slide_large_wood (UnityEngine.GameObject),impact_large_metal (UnityEngine.GameObject),2.8105179,0,0,0,null,-0.004894499,1.218328,3.010926,0.8220178,1.168328,2.894711,0.9243435,1.031364,2.705276,null,null,
46,spatial,True,False,ao-congruent,12,0,3.320481,slide_large_wood (UnityEngine.GameObject),slide_large_wood (UnityEngine.GameObject),1.9755178,1,0,0,null,-0.004737732,1.217094,3.011475,0.6189973,1.168094,2.945918,0.420301,1.081062,2.805638,null,null,
47,spatial,True,False,ao-congruent,0,0,-4.533238,impact_large_metal (UnityEngine.GameObject),impact_large_metal (UnityEngine.GameObject),2.2091488,0,0,0,null,-0.004828454,1.218233,3.010867,-0.004828454,1.168233,3.010867,-0.2367601,1.086074,2.821503,-4.533238,null,
48,spatial,True,False,ao-incongruent,16,0,2.426564,slide_large_wood (UnityEngine.GameObject),impact_large_metal (UnityEngine.GameObject),1.9885683,1,0,0,null,-0.005419344,1.217789,3.011933,-0.8323317,1.167789,2.895718,-0.6757069,1.035459,2.776515,null,null,
49,spatial,True,False,ao-incongruent,16,0,-1.438174,slide_large_wood (UnityEngine.GameObject),impact_large_metal (UnityEngine.GameObject),1.9987462,0,0,0,null,-0.005028615,1.217444,3.012238,-0.8319409,1.167444,2.896023,-0.8367081,1.042237,2.727427,null,null,
50,spatial,True,False,ao-incongruent,4,0,2.35077,slide_large_metal (UnityEngine.GameObject),impact_large_wood (UnityEngine.GameObject),2.3424743,1,1,0,null,-0.004584713,1.217387,3.011991,0.2046847,1.167387,3.004683,0.08424725,1.082059,2.837153,null,null,
51,spatial,True,False,ao-incongruent,0,0,-1.182667,slide_large_wood (UnityEngine.GameObject),impact_large_metal (UnityEngine.GameObject),1.98662,0,1,0,null,-0.004676241,1.217321,3.011955,-0.004676241,1.167321,3.011955,-0.01762931,1.092147,2.840408,-1.182667,null,
52,spatial,True,False,ao-incongruent,8,0,-1.626423,impact_large_metal (UnityEngine.GameObject),slide_large_wood (UnityEngine.GameObject),2.008827,0,0,0,null,-0.005021678,1.216373,3.012355,-0.422541,1.167373,2.983159,-0.4576802,1.081131,2.802086,null,null,
53,spatial,True,False,ao-incongruent,12,0,4.691227,slide_large_wood (UnityEngine.GameObject),impact_large_metal (UnityEngine.GameObject),2.0864354,1,0,0,null,-0.004238875,1.223534,3.001456,0.6194962,1.173534,2.935899,0.3457292,1.082091,2.812386,null,null,
54,spatial,True,False,ao-incongruent,16,0,-4.654295,impact_large_metal (UnityEngine.GameObject),slide_large_wood (UnityEngine.GameObject),2.3642314,0,0,0,null,-0.01658359,1.215757,3.00739,-0.8434958,1.166757,2.891175,-1.03506,1.029451,2.673619,null,null,
55,spatial,True,False,ao-congruent,16,0,3.367088,impact_large_wood (UnityEngine.GameObject),impact_large_wood (UnityEngine.GameObject),2.3992011,1,0,0,null,-0.008700352,1.217057,3.008651,0.8182119,1.167057,2.892436,0.6084051,1.115526,2.770855,null,null,
56,spatial,True,False,ao-congruent,8,0,4.281028,slide_large_wood (UnityEngine.GameObject),slide_large_wood (UnityEngine.GameObject),1.8768237,1,0,0,null,-0.008172869,1.216193,3.009184,0.4093465,1.167193,2.979988,0.1673297,1.070133,2.832905,null,null,
57,spatial,True,False,ao-incongruent,12,0,1.021825,slide_large_metal (UnityEngine.GameObject),impact_large_wood (UnityEngine.GameObject),2.2989087,1,0,0,null,-0.008754444,1.217402,3.008776,-0.6324895,1.167402,2.943218,-0.5897616,1.040364,2.800029,null,null,
58,spatial,True,False,ao-incongruent,8,0,1.183164,impact_large_metal (UnityEngine.GameObject),slide_large_wood (UnityEngine.GameObject),2.220809,1,0,0,null,-0.008051772,1.216546,3.00837,-0.4255711,1.167547,2.979174,-0.3900263,1.075782,2.810114,null,null,
59,spatial,True,False,ao-congruent,12,0,5.933098,impact_large_metal (UnityEngine.GameObject),impact_large_metal (UnityEngine.GameObject),2.6216614,1,0,0,null,-0.007882595,1.217793,3.008068,-0.6316177,1.167793,2.942511,-0.2894948,1.033228,2.832541,null,null,
60,spatial,True,False,ao-congruent,16,0,1.649956,impact_large_wood (UnityEngine.GameObject),impact_large_wood (UnityEngine.GameObject),2.3993114,1,0,0,null,-0.008182909,1.217926,3.007855,-0.8350952,1.167926,2.89164,-0.7256709,1.003811,2.771929,null,null,
61,spatial,True,False,ao-congruent,12,0,-2.395717,impact_large_metal (UnityEngine.GameObject),impact_large_metal (UnityEngine.GameObject),2.2075538,0,0,0,null,-0.008302299,1.217828,3.008408,-0.6320373,1.167828,2.942851,-0.7153082,1.013817,2.771793,null,null,
62,spatial,True,False,ao-incongruent,12,0,-2.280446,slide_large_wood (UnityEngine.GameObject),impact_large_metal (UnityEngine.GameObject),2.3427179,0,0,0,null,-0.007884555,1.217343,3.009149,-0.6316196,1.167343,2.943592,-0.7097943,1.000833,2.777498,null,null,
63,spatial,True,False,ao-incongruent,4,0,-1.18184,impact_large_metal (UnityEngine.GameObject),slide_large_wood (UnityEngine.GameObject),2.9876703,0,0,0,null,-0.008549564,1.216721,3.008805,-0.217819,1.167721,3.001497,-0.2184949,1.064539,2.829766,null,null,
64,spatial,True,False,ao-incongruent,16,0,4.746852,slide_large_metal (UnityEngine.GameObject),impact_large_wood (UnityEngine.GameObject),2.1909465,1,0,0,null,-0.008553071,1.217606,3.008737,-0.8354654,1.167606,2.892522,-0.550869,1.056475,2.800742,null,null,
65,spatial,True,False,ao-congruent,8,0,4.698154,impact_large_wood (UnityEngine.GameObject),impact_large_wood (UnityEngine.GameObject),2.2219916,1,0,0,null,-0.01261085,1.213624,2.966867,-0.4301302,1.163624,2.937671,-0.1662918,1.012558,2.850476,null,null,
66,spatial,True,False,ao-incongruent,12,0,-1.471267,impact_large_metal (UnityEngine.GameObject),slide_large_wood (UnityEngine.GameObject),1.9329507,0,0,0,null,-0.0167205,1.215019,2.95054,0.6070146,1.166019,2.884982,0.656233,1.055807,2.775747,null,null,
67,spatial,True,False,ao-congruent,4,0,1.683885,slide_large_metal (UnityEngine.GameObject),slide_large_metal (UnityEngine.GameObject),2.5747466,1,1,0,null,-0.01793992,1.214771,2.953765,-0.2272093,1.165771,2.946457,-0.1606345,1.255785,2.75689,null,null,
68,spatial,True,False,ao-incongruent,12,0,2.446966,impact_large_metal (UnityEngine.GameObject),slide_large_wood (UnityEngine.GameObject),1.9330663,1,0,0,null,-0.01688616,1.215941,2.952534,0.6068489,1.166941,2.886977,0.4639252,1.290177,2.709784,null,null,
69,spatial,True,False,ao-congruent,8,0,5.796536,impact_large_wood (UnityEngine.GameObject),impact_large_wood (UnityEngine.GameObject),2.2434569,1,1,0,null,-0.01686241,1.218076,2.951709,-0.4343818,1.168076,2.922513,-0.1145688,1.284417,2.745948,null,null,
70,spatial,True,False,ao-congruent,8,0,1.505972,slide_large_metal (UnityEngine.GameObject),slide_large_metal (UnityEngine.GameObject),2.0555428,1,0,0,null,-0.01767766,1.217774,2.951678,-0.435197,1.168774,2.922482,-0.3739317,1.259017,2.734967,null,null,
71,spatial,True,False,ao-congruent,12,0,3.324017,slide_large_metal (UnityEngine.GameObject),slide_large_metal (UnityEngine.GameObject),2.0787908,1,0,0,null,-0.01922742,1.219996,2.948818,-0.6429625,1.170996,2.88326,-0.4458227,1.245358,2.735461,null,null,
72,spatial,True,False,ao-congruent,8,0,4.387982,impact_large_metal (UnityEngine.GameObject),impact_large_metal (UnityEngine.GameObject),1.9445528,1,0,0,null,-0.01773327,1.221779,2.948208,0.3997861,1.171779,2.919012,0.1558549,1.189361,2.792838,null,null,
73,spatial,True,False,ao-congruent,4,0,1.594587,slide_large_metal (UnityEngine.GameObject),slide_large_metal (UnityEngine.GameObject),2.1331211,1,0,0,null,-0.01871655,1.220978,2.948234,-0.2279859,1.171978,2.940927,-0.1860681,1.301394,2.730103,null,null,
74,spatial,True,False,ao-incongruent,8,0,2.351519,slide_large_metal (UnityEngine.GameObject),impact_large_wood (UnityEngine.GameObject),2.3659704,1,0,0,null,-0.01743335,1.221968,2.948733,0.400086,1.171968,2.919537,0.2682117,1.14702,2.800029,null,null,
75,spatial,True,False,ao-congruent,16,0,2.748229,impact_large_metal (UnityEngine.GameObject),impact_large_metal (UnityEngine.GameObject),2.1860419,1,0,0,null,-0.01831304,1.221923,2.948267,-0.8452253,1.171923,2.832052,-0.6725269,1.191394,2.722576,null,null,
76,spatial,True,False,ao-incongruent,16,0,1.343483,slide_large_wood (UnityEngine.GameObject),impact_large_metal (UnityEngine.GameObject),2.1090459,1,0,0,null,-0.02271165,1.21804,2.955481,-0.8496239,1.16804,2.839266,-0.7605421,1.044818,2.748823,null,null,
77,spatial,True,False,ao-incongruent,4,0,1.456697,impact_large_metal (UnityEngine.GameObject),slide_large_wood (UnityEngine.GameObject),2.509519,1,0,0,null,-0.0184826,1.216865,2.95737,0.1907868,1.167866,2.950063,0.1442811,1.239455,2.767158,null,null,
78,spatial,True,False,ao-congruent,16,0,-1.175531,impact_large_metal (UnityEngine.GameObject),impact_large_metal (UnityEngine.GameObject),2.4541245,0,0,0,null,-0.01871128,1.217381,2.958738,0.808201,1.167381,2.842523,0.7971876,1.181207,2.69186,null,null,
79,spatial,True,False,ao-incongruent,16,0,-1.062384,slide_large_wood (UnityEngine.GameObject),impact_large_metal (UnityEngine.GameObject),2.2888213,0,0,0,null,-0.02070279,1.217128,2.960186,-0.8476151,1.167128,2.843971,-0.827588,1.135304,2.700727,null,null,
80,spatial,True,False,ao-incongruent,12,0,2.227126,slide_large_wood (UnityEngine.GameObject),impact_large_metal (UnityEngine.GameObject),2.04186,1,0,0,null,-0.02003173,1.217208,2.960044,-0.6437668,1.167208,2.894487,-0.5089258,1.089217,2.794781,null,null,
81,spatial,True,False,ao-incongruent,16,0,6.14478,slide_large_wood (UnityEngine.GameObject),impact_large_metal (UnityEngine.GameObject),1.909594,1,0,0,null,-0.01792265,1.217294,2.9591,0.8089896,1.167294,2.842885,0.4589593,1.098473,2.796696,null,null,
82,spatial,True,False,ao-congruent,4,0,4.520561,impact_large_wood (UnityEngine.GameObject),impact_large_wood (UnityEngine.GameObject),2.1660186,1,1,0,null,-0.02010232,1.217304,2.959698,0.1891671,1.167304,2.95239,-0.04741339,1.268107,2.761024,null,null,
83,spatial,True,False,ao-congruent,12,0,3.684509,slide_large_wood (UnityEngine.GameObject),slide_large_wood (UnityEngine.GameObject),2.1113725,1,0,0,null,-0.02068327,1.215883,2.960603,-0.6444184,1.166883,2.895046,-0.4266786,1.208295,2.757084,null,null,
84,spatial,True,False,ao-congruent,16,0,-3.085594,impact_large_metal (UnityEngine.GameObject),impact_large_metal (UnityEngine.GameObject),2.7992741,0,0,0,null,-0.0218926,1.216387,2.961867,-0.8488049,1.166387,2.845652,-0.9470302,1.190198,2.643193,null,null,
85,spatial,True,False,ao-congruent,16,0,4.056227,slide_large_metal (UnityEngine.GameObject),slide_large_metal (UnityEngine.GameObject),3.2319944,1,0,0,null,-0.02745814,1.223543,2.923702,-0.8543704,1.174543,2.807487,-0.6169233,1.161805,2.753798,null,null,
86,spatial,True,False,ao-incongruent,8,0,-0.3039024,slide_large_wood (UnityEngine.GameObject),impact_large_metal (UnityEngine.GameObject),3.2879331,0,0,0,null,-0.01738729,1.223716,2.921116,0.4001321,1.173716,2.89192,0.3948357,0.9494693,2.847967,null,null,
87,spatial,True,False,ao-congruent,4,0,4.643508,impact_large_wood (UnityEngine.GameObject),impact_large_wood (UnityEngine.GameObject),2.4108227,1,1,0,null,-0.01904892,1.223626,2.922589,0.1902205,1.173626,2.915282,-0.0570219,1.227984,2.781559,null,null,
88,spatial,True,False,ao-congruent,12,0,2.302483,slide_large_wood (UnityEngine.GameObject),slide_large_wood (UnityEngine.GameObject),1.9660904,1,0,0,null,-0.01987948,1.222135,2.924127,-0.6436145,1.173135,2.858569,-0.505628,1.203694,2.752069,null,null,
89,spatial,True,False,ao-congruent,8,0,3.864827,impact_large_metal (UnityEngine.GameObject),impact_large_metal (UnityEngine.GameObject),3.1761812,1,0,0,null,-0.01905226,1.223146,2.923541,0.3984671,1.173146,2.894345,0.1839365,1.191223,2.789185,null,null,
90,spatial,True,False,ao-congruent,8,0,4.088542,slide_large_wood (UnityEngine.GameObject),slide_large_wood (UnityEngine.GameObject),2.4325783,1,0,0,null,-0.01947367,1.222374,2.923053,0.3980457,1.173374,2.893857,0.1719674,1.228287,2.770506,null,null,
91,spatial,True,False,ao-congruent,12,0,3.734234,slide_large_metal (UnityEngine.GameObject),slide_large_metal (UnityEngine.GameObject),2.5663828,1,0,0,null,-0.01937164,1.222034,2.923844,0.6043634,1.173034,2.858286,0.3886506,1.258791,2.733687,null,null,
92,spatial,True,False,ao-incongruent,16,0,4.212032,slide_large_metal (UnityEngine.GameObject),impact_large_wood (UnityEngine.GameObject),2.8206078,1,0,0,null,-0.01912001,1.222725,2.924707,0.8077922,1.172725,2.808492,0.5631464,1.201844,2.747604,null,null,
93,spatial,True,False,ao-incongruent,4,0,-0.9657058,slide_large_metal (UnityEngine.GameObject),impact_large_wood (UnityEngine.GameObject),2.1852482,0,0,0,null,-0.01610459,1.226442,2.924399,-0.225374,1.176442,2.917091,-0.2207214,1.19969,2.781184,null,null,
94,spatial,True,False,ao-incongruent,4,0,3.978083,slide_large_wood (UnityEngine.GameObject),impact_large_metal (UnityEngine.GameObject),2.232411,1,1,0,null,-0.01553434,1.225811,2.925601,0.1937351,1.175811,2.918293,-0.0201649,1.183456,2.808851,null,null,
95,spatial,True,False,ao-congruent,16,0,2.862933,slide_large_wood (UnityEngine.GameObject),slide_large_wood (UnityEngine.GameObject),1.942779,1,0,0,null,-0.01744983,1.224679,2.926748,-0.8443621,1.175679,2.810533,-0.6684642,1.191025,2.723966,null,null,
96,spatial,True,False,ao-congruent,4,0,4.044816,impact_large_metal (UnityEngine.GameObject),impact_large_metal (UnityEngine.GameObject),1.9902818,1,1,0,null,-0.01684672,1.225665,2.925775,-0.2261161,1.175665,2.918467,-0.0077489,1.193901,2.804443,null,null,
97,spatial,True,False,ao-congruent,12,0,11.57672,impact_large_wood (UnityEngine.GameObject),impact_large_wood (UnityEngine.GameObject),3.0338668,1,1,0,null,-0.0172674,1.225136,2.927209,0.6064677,1.175136,2.861651,-0.02505676,1.21545,2.791286,null,null,
98,spatial,True,False,ao-congruent,4,0,4.103221,slide_large_wood (UnityEngine.GameObject),slide_large_wood (UnityEngine.GameObject),2.1788399,1,1,0,null,-0.008875026,1.218999,2.937101,0.2003944,1.169999,2.929793,-0.01774168,1.232022,2.783121,null,null,
99,spatial,True,False,ao-incongruent,12,0,4.974884,slide_large_wood (UnityEngine.GameObject),impact_large_metal (UnityEngine.GameObject),2.3115949,1,0,0,null,-0.01120534,1.215625,2.941287,0.6125298,1.165625,2.875729,0.3302304,1.146829,2.794215,null,null,
100,spatial,True,False,ao-incongruent,0,0,-1.54965,slide_large_wood (UnityEngine.GameObject),impact_large_metal (UnityEngine.GameObject),2.5105062,0,1,0,null,-0.01235432,1.214995,2.943393,-0.01235432,1.164995,2.943393,-0.07400688,1.193911,2.798164,-1.54965,null,
101,spatial,True,False,ao-incongruent,12,0,4.94823,impact_large_metal (UnityEngine.GameObject),slide_large_wood (UnityEngine.GameObject),2.8789475,1,0,0,null,-0.01257082,1.213505,2.944542,0.6111643,1.164505,2.878985,0.3277296,1.276258,2.730118,null,null,
102,spatial,True,False,ao-incongruent,8,0,2.693554,slide_large_wood (UnityEngine.GameObject),impact_large_metal (UnityEngine.GameObject),2.3666206,1,0,0,null,-0.01356762,1.214525,2.945344,-0.431087,1.164526,2.916148,-0.2801095,1.208417,2.770897,null,null,
103,spatial,True,False,ao-incongruent,4,0,1.197793,slide_large_wood (UnityEngine.GameObject),impact_large_metal (UnityEngine.GameObject),2.1661209,1,0,0,null,-0.01409558,1.214225,2.945977,-0.223365,1.164225,2.938669,-0.2056773,1.225641,2.768738,null,null,
104,spatial,True,False,ao-incongruent,12,0,4.290761,slide_large_wood (UnityEngine.GameObject),impact_large_metal (UnityEngine.GameObject),2.1530868,1,0,0,null,-0.01512189,1.214186,2.946007,-0.6388569,1.164186,2.88045,-0.3898573,1.207085,2.761218,null,null,
105,temporal,True,False,ao-congruent,0,0,68.23882,impact_large_metal (UnityEngine.GameObject),impact_large_metal (UnityEngine.GameObject),3.8978769,null,null,0.175,0,-0.03540574,1.212136,2.91105,-0.03540574,1.162136,2.91105,0,0,0,null,null,
106,temporal,True,False,ao-incongruent,0,0,68.24225,slide_large_wood (UnityEngine.GameObject),impact_large_metal (UnityEngine.GameObject),3.886164,null,null,0.175,0,-0.03619223,1.211872,2.910886,-0.03619223,1.161872,2.910886,0,0,0,null,null,
107,temporal,True,False,ao-congruent,0,0,-1.936338,slide_large_metal (UnityEngine.GameObject),slide_large_metal (UnityEngine.GameObject),2.4450402,null,null,0.18,1,-0.03823692,1.211415,2.909162,-0.03823692,1.162415,2.909162,-0.1439219,0.5718991,2.981459,null,null,
108,temporal,True,False,ao-congruent,0,0,-1.51904,slide_large_metal (UnityEngine.GameObject),slide_large_metal (UnityEngine.GameObject),1.2993371,null,null,0,1,-0.03854996,1.210787,2.910946,-0.03854996,1.161788,2.910946,-0.1200072,0.5807763,2.982849,null,same,
109,temporal,True,False,ao-incongruent,0,0,-1.357683,impact_large_metal (UnityEngine.GameObject),slide_large_wood (UnityEngine.GameObject),1.576731,null,null,0.175,1,-0.0425505,1.210647,2.910741,-0.0425505,1.161647,2.910741,-0.1146381,0.5968352,2.981475,null,null,
110,temporal,True,False,ao-incongruent,0,0,-1.49711,impact_large_metal (UnityEngine.GameObject),slide_large_wood (UnityEngine.GameObject),1.6073776,null,null,0.17,1,-0.04332922,1.210684,2.910943,-0.04332922,1.161684,2.910943,-0.1236653,0.5851281,2.982074,null,null,
111,temporal,True,False,ao-congruent,0,0,68.37746,slide_large_wood (UnityEngine.GameObject),slide_large_wood (UnityEngine.GameObject),3.7311872,null,null,0.18,0,-0.04088741,1.206903,2.920883,-0.04088741,1.157903,2.920883,0,0,0,null,null,
112,temporal,True,False,ao-congruent,0,0,-1.482925,impact_large_wood (UnityEngine.GameObject),impact_large_wood (UnityEngine.GameObject),2.9211172,null,null,0.17,1,-0.04609939,1.208827,2.91915,-0.04609939,1.158827,2.91915,-0.1268992,0.6111072,2.975985,null,null,
113,temporal,True,False,ao-incongruent,0,0,-1.540404,impact_large_metal (UnityEngine.GameObject),slide_large_wood (UnityEngine.GameObject),2.1198361,null,null,0.18,1,-0.04732488,1.208557,2.917456,-0.04732488,1.159557,2.917456,-0.1314647,0.6191592,2.97311,null,null,
114,temporal,True,False,ao-incongruent,0,0,68.30789,slide_large_wood (UnityEngine.GameObject),impact_large_metal (UnityEngine.GameObject),3.8879314,null,null,0.17,0,-0.04642886,1.20983,2.915323,-0.04642886,1.15983,2.915323,0,0,0,null,null,
115,temporal,True,False,ao-congruent,0,0,68.27686,slide_large_metal (UnityEngine.GameObject),slide_large_metal (UnityEngine.GameObject),3.7311178,null,null,0.18,0,-0.04911518,1.209786,2.913088,-0.04911518,1.160786,2.913088,0,0,0,null,null,
116,temporal,True,False,ao-incongruent,0,0,-3.642445,impact_large_metal (UnityEngine.GameObject),slide_large_wood (UnityEngine.GameObject),1.4000151,null,null,0,1,-0.03512355,1.212697,2.901308,-0.03512355,1.163697,2.901308,-0.2375118,0.5684805,2.972934,null,same,
117,temporal,True,False,ao-incongruent,0,0,68.14913,slide_large_metal (UnityEngine.GameObject),impact_large_wood (UnityEngine.GameObject),3.899804,null,null,0.18,0,-0.03655095,1.213991,2.902478,-0.03655095,1.163991,2.902478,0,0,0,null,null,
118,temporal,True,False,ao-congruent,0,0,68.14854,impact_large_metal (UnityEngine.GameObject),impact_large_metal (UnityEngine.GameObject),3.8885457,null,null,0.175,0,-0.03756,1.214234,2.902986,-0.03756,1.164234,2.902986,0,0,0,null,null,
119,temporal,True,False,ao-congruent,0,0,-3.56068,slide_large_wood (UnityEngine.GameObject),slide_large_wood (UnityEngine.GameObject),1.8088758,null,null,0.175,1,-0.03731139,1.221847,2.917224,-0.03731139,1.172848,2.917224,-0.235925,0.5528006,2.974629,null,null,
120,temporal,True,False,ao-incongruent,0,0,68.07924,slide_large_wood (UnityEngine.GameObject),impact_large_metal (UnityEngine.GameObject),3.8876398,null,null,0.18,0,-0.03187476,1.218113,2.902558,-0.03187476,1.168113,2.902558,0,0,0,null,null,
121,temporal,True,False,ao-incongruent,0,0,68.06446,slide_large_wood (UnityEngine.GameObject),impact_large_metal (UnityEngine.GameObject),3.9093306,null,null,0.18,0,-0.03232277,1.218239,2.900705,-0.03232277,1.168239,2.900705,0,0,0,null,null,
122,temporal,True,False,ao-incongruent,0,0,68.07453,slide_large_wood (UnityEngine.GameObject),impact_large_metal (UnityEngine.GameObject),3.8975147,null,null,0.18,0,-0.03382247,1.217819,2.901115,-0.03382247,1.167819,2.901115,0,0,0,null,null,
123,temporal,True,False,ao-congruent,0,0,-4.840234,slide_large_wood (UnityEngine.GameObject),slide_large_wood (UnityEngine.GameObject),1.8990738,null,null,0.175,1,-0.03410063,1.216477,2.901789,-0.03410063,1.167477,2.901789,-0.304087,0.5355287,2.969876,null,null,
124,temporal,True,False,ao-congruent,0,0,-4.827467,slide_large_metal (UnityEngine.GameObject),slide_large_metal (UnityEngine.GameObject),2.7648917,null,null,0.18,1,-0.0345569,1.216303,2.901781,-0.0345569,1.167303,2.901781,-0.3038459,0.5328349,2.970164,null,null,
125,temporal,True,False,ao-congruent,0,0,-4.78516,impact_large_metal (UnityEngine.GameObject),impact_large_metal (UnityEngine.GameObject),1.8464004,null,null,0.17,1,-0.05208055,1.213537,2.901729,-0.05208055,1.163537,2.901729,-0.3193181,0.5312471,2.968856,null,null,
126,temporal,True,False,ao-congruent,0,0,-2.178346,impact_large_metal (UnityEngine.GameObject),impact_large_metal (UnityEngine.GameObject),2.0649663,null,null,0.17,1,-0.04973075,1.214531,2.906429,-0.04973075,1.164531,2.906429,-0.1693609,0.5239311,2.983774,null,null,
127,temporal,True,False,ao-incongruent,0,0,-2.070465,slide_large_wood (UnityEngine.GameObject),impact_large_metal (UnityEngine.GameObject),2.1642624,null,null,0.175,1,-0.04978519,1.214572,2.906287,-0.04978519,1.164572,2.906287,-0.1631702,0.5300755,2.983756,null,null,
128,temporal,True,False,ao-congruent,0,0,-4.671435,impact_large_metal (UnityEngine.GameObject),impact_large_metal (UnityEngine.GameObject),1.6556319,null,null,0.18,1,-0.04625276,1.214271,2.903967,-0.04625276,1.164271,2.903967,-0.3069422,0.5479295,2.968385,null,null,
129,temporal,True,False,ao-incongruent,0,0,0.8268523,slide_large_wood (UnityEngine.GameObject),impact_large_metal (UnityEngine.GameObject),1.9334103,null,null,0.175,1,-0.05377767,1.214896,2.910028,-0.05377767,1.164896,2.910028,-0.02188844,0.5300122,2.997139,null,null,
130,temporal,True,False,ao-incongruent,0,0,68.18932,slide_large_metal (UnityEngine.GameObject),impact_large_wood (UnityEngine.GameObject),3.8995932,null,null,0.17,0,-0.05298467,1.214165,2.908565,-0.05298467,1.164165,2.908565,0,0,0,null,null,
131,temporal,True,False,ao-congruent,0,0,-1.263001,slide_large_wood (UnityEngine.GameObject),slide_large_wood (UnityEngine.GameObject),1.245123,null,null,0,1,-0.05262664,1.207308,2.917904,-0.05262664,1.158308,2.917904,-0.1199484,0.5714408,2.983773,null,same,
132,temporal,True,False,ao-incongruent,0,0,68.52122,slide_large_wood (UnityEngine.GameObject),impact_large_metal (UnityEngine.GameObject),3.8983107,null,null,0.18,0,-0.04985784,1.201133,2.925072,-0.04985784,1.151133,2.925072,0,0,0,null,null,
133,temporal,True,False,ao-congruent,0,0,-1.28983,slide_large_wood (UnityEngine.GameObject),slide_large_wood (UnityEngine.GameObject),1.6780755,null,null,0.18,1,-0.04951193,1.199849,2.92568,-0.04951193,1.15085,2.92568,-0.1193237,0.5886162,2.982141,null,null,
134,temporal,True,False,ao-congruent,0,0,-1.36845,slide_large_wood (UnityEngine.GameObject),slide_large_wood (UnityEngine.GameObject),1.4201792,null,null,0.17,1,-0.04918448,1.199941,2.925319,-0.04918448,1.150941,2.925319,-0.1236344,0.5975137,2.980417,null,null,
135,temporal,True,False,ao-congruent,0,0,-1.509217,slide_large_metal (UnityEngine.GameObject),slide_large_metal (UnityEngine.GameObject),1.8294153,null,null,0.17,1,-0.04940277,1.200035,2.925078,-0.04940277,1.151036,2.925078,-0.1320101,0.5975803,2.979604,null,null,
136,temporal,True,False,ao-incongruent,0,0,-1.324708,slide_large_metal (UnityEngine.GameObject),impact_large_wood (UnityEngine.GameObject),1.8870472,null,null,0.175,1,-0.04990614,1.200849,2.925905,-0.04990614,1.150849,2.925905,-0.1217821,0.5872615,2.982041,null,null,
137,temporal,True,False,ao-incongruent,0,0,-1.496718,slide_large_metal (UnityEngine.GameObject),impact_large_wood (UnityEngine.GameObject),1.4335464,null,null,0,1,-0.04956707,1.200989,2.925295,-0.04956707,1.150989,2.925295,-0.1318716,0.628279,2.970305,null,same,
138,temporal,True,False,ao-incongruent,0,0,-1.437086,impact_large_metal (UnityEngine.GameObject),slide_large_wood (UnityEngine.GameObject),1.7433081,null,null,0.17,1,-0.049918,1.19973,2.925726,-0.049918,1.15073,2.925726,-0.1284105,0.5978356,2.979867,null,null,
139,temporal,True,False,ao-incongruent,0,0,-1.527647,impact_large_metal (UnityEngine.GameObject),slide_large_wood (UnityEngine.GameObject),1.4458837,null,null,0.18,1,-0.04953087,1.200219,2.924656,-0.04953087,1.151219,2.924656,-0.1333198,0.6082616,2.97624,null,null,
140,temporal,True,False,ao-congruent,0,0,-1.512973,slide_large_wood (UnityEngine.GameObject),slide_large_wood (UnityEngine.GameObject),1.4777167,null,null,0.175,1,-0.0500826,1.20021,2.925131,-0.0500826,1.15121,2.925131,-0.1332406,0.6219466,2.972096,null,null,
141,temporal,True,False,ao-incongruent,0,0,-1.593727,slide_large_metal (UnityEngine.GameObject),impact_large_wood (UnityEngine.GameObject),1.9323798,null,null,0.17,1,-0.04961972,1.201156,2.92508,-0.04961972,1.151156,2.92508,-0.1371324,0.5995737,2.978514,null,null,
142,temporal,True,False,ao-congruent,0,0,68.51953,slide_large_metal (UnityEngine.GameObject),slide_large_metal (UnityEngine.GameObject),3.7314217,null,null,0.175,0,-0.05122819,1.200222,2.925023,-0.05122819,1.151222,2.925023,0,0,0,null,null,
143,temporal,True,False,ao-incongruent,0,0,-1.164661,slide_large_wood (UnityEngine.GameObject),impact_large_metal (UnityEngine.GameObject),1.632155,null,null,0,1,-0.04803454,1.205954,2.919141,-0.04803454,1.155954,2.919141,-0.1095417,0.5813378,2.983784,null,same,
144,temporal,True,False,ao-congruent,0,0,-1.162475,impact_large_metal (UnityEngine.GameObject),impact_large_metal (UnityEngine.GameObject),1.3886494,null,null,0,1,-0.04818662,1.205848,2.918382,-0.04818662,1.155848,2.918382,-0.1094791,0.5832916,2.983598,null,same,
145,temporal,True,False,ao-congruent,0,0,-1.385645,slide_large_wood (UnityEngine.GameObject),slide_large_wood (UnityEngine.GameObject),1.8002453,null,null,0.17,1,-0.04829641,1.204886,2.918242,-0.04829641,1.155886,2.918242,-0.1229211,0.5821046,2.982442,null,null,
146,temporal,True,False,ao-incongruent,0,0,-2.670271,impact_large_metal (UnityEngine.GameObject),slide_large_wood (UnityEngine.GameObject),1.5209339,null,null,0.18,1,-0.0474451,1.204545,2.917625,-0.0474451,1.155545,2.917625,-0.1957267,0.5957916,2.974114,null,null,
147,temporal,True,False,ao-congruent,0,0,-2.534972,slide_large_metal (UnityEngine.GameObject),slide_large_metal (UnityEngine.GameObject),1.5558829,null,null,0.17,1,-0.04768171,1.204081,2.918239,-0.04768171,1.155081,2.918239,-0.1883428,0.6013673,2.973121,null,null,
148,temporal,True,False,ao-congruent,0,0,-2.571007,impact_large_wood (UnityEngine.GameObject),impact_large_wood (UnityEngine.GameObject),1.6341672,null,null,0.17,1,-0.04804788,1.204964,2.918718,-0.04804788,1.154964,2.918718,-0.1907719,0.5956673,2.974621,null,null,
149,temporal,True,False,ao-incongruent,0,0,-2.507802,slide_large_wood (UnityEngine.GameObject),impact_large_metal (UnityEngine.GameObject),1.7870513,null,null,0.17,1,-0.04842865,1.204823,2.918309,-0.04842865,1.154823,2.918309,-0.1875712,0.5912027,2.975424,null,null,
150,temporal,True,False,ao-congruent,0,0,-4.508412,slide_large_metal (UnityEngine.GameObject),slide_large_metal (UnityEngine.GameObject),1.4876767,null,null,0.175,1,-0.04501658,1.203759,2.915766,-0.04501658,1.154759,2.915766,-0.2948433,0.6649589,2.943748,null,null,
151,temporal,True,False,ao-incongruent,0,0,-3.632756,slide_large_wood (UnityEngine.GameObject),impact_large_metal (UnityEngine.GameObject),1.7303302,null,null,0.17,1,-0.04880515,1.205361,2.918178,-0.04880515,1.155361,2.918178,-0.2505095,0.6454491,2.953864,null,null,
152,temporal,True,False,ao-congruent,0,0,-6.126343,impact_large_metal (UnityEngine.GameObject),impact_large_metal (UnityEngine.GameObject),1.6320193,null,null,0.175,1,-0.04502894,1.204836,2.915657,-0.04502894,1.154836,2.915657,-0.384514,0.6603135,2.936667,null,null,
153,temporal,True,False,ao-incongruent,0,0,68.37715,slide_large_wood (UnityEngine.GameObject),impact_large_metal (UnityEngine.GameObject),3.8881492,null,null,0.18,0,-0.04914036,1.212633,2.932647,-0.04914036,1.162633,2.932647,0,0,0,null,null,
154,temporal,True,False,ao-incongruent,0,0,68.47789,slide_large_wood (UnityEngine.GameObject),impact_large_metal (UnityEngine.GameObject),3.889315,null,null,0.175,0,-0.03466443,1.20741,2.93473,-0.03466443,1.15741,2.93473,0,0,0,null,null,
155,temporal,True,False,ao-congruent,0,0,-35.64382,impact_large_wood (UnityEngine.GameObject),impact_large_wood (UnityEngine.GameObject),1.6321322,null,null,0.175,1,-0.04741614,1.203553,2.937241,-0.04741614,1.153553,2.937241,-1.935061,0.2318552,2.372465,null,null,
156,temporal,True,False,ao-congruent,0,0,-35.91348,impact_large_metal (UnityEngine.GameObject),impact_large_metal (UnityEngine.GameObject),2.0545264,null,null,0.18,1,-0.04868629,1.203173,2.938143,-0.04868629,1.153173,2.938143,-1.949394,0.2116471,2.36372,null,null,
157,temporal,True,False,ao-congruent,0,0,-35.77896,impact_large_wood (UnityEngine.GameObject),impact_large_wood (UnityEngine.GameObject),1.5448226,null,null,0,1,-0.04873629,1.202786,2.93863,-0.04873629,1.152786,2.93863,-1.943862,0.2012594,2.369401,null,same,
158,temporal,True,False,ao-congruent,0,0,68.5666,impact_large_wood (UnityEngine.GameObject),impact_large_wood (UnityEngine.GameObject),3.877521,null,null,0.175,0,-0.04508316,1.203377,2.937683,-0.04508316,1.153377,2.937683,0,0,0,null,null,
159,temporal,True,False,ao-incongruent,0,0,-36.12685,impact_large_metal (UnityEngine.GameObject),slide_large_wood (UnityEngine.GameObject),1.44479,null,null,0.175,1,-0.04476615,1.203176,2.936832,-0.04476615,1.154176,2.936832,-1.956712,0.2014117,2.359244,null,null,
160,temporal,True,False,ao-incongruent,0,0,-39.55583,slide_large_metal (UnityEngine.GameObject),impact_large_wood (UnityEngine.GameObject),2.176825,null,null,0.18,1,-0.04186072,1.20482,2.932664,-0.04186072,1.15482,2.932664,-2.110712,0.1961098,2.238423,null,null,
161,temporal,True,False,ao-congruent,0,0,-39.12775,slide_large_wood (UnityEngine.GameObject),slide_large_wood (UnityEngine.GameObject),1.4094937,null,null,0.17,1,-0.04445415,1.204186,2.930646,-0.04445415,1.155186,2.930646,-2.091502,0.2278138,2.249558,null,null,
162,temporal,True,False,ao-congruent,0,0,-39.45463,impact_large_wood (UnityEngine.GameObject),impact_large_wood (UnityEngine.GameObject),1.6236208,null,null,0.175,1,-0.04316286,1.206627,2.929103,-0.04316286,1.156627,2.929103,-2.107105,0.2056725,2.240056,null,null,
163,temporal,True,False,ao-congruent,0,0,-39.72869,impact_large_wood (UnityEngine.GameObject),impact_large_wood (UnityEngine.GameObject),1.6329936,null,null,0.17,1,-0.04394987,1.207806,2.928285,-0.04394987,1.157806,2.928285,-2.120232,0.2103081,2.229112,null,null,
164,temporal,True,False,ao-congruent,0,0,-39.92785,impact_large_wood (UnityEngine.GameObject),impact_large_wood (UnityEngine.GameObject),1.5436326,null,null,0.18,1,-0.04440157,1.208216,2.927492,-0.04440157,1.158216,2.927492,-2.130026,0.2069865,2.221806,null,null,
165,temporal,True,False,ao-congruent,0,0,-39.66158,impact_large_wood (UnityEngine.GameObject),impact_large_wood (UnityEngine.GameObject),2.3207205,null,null,0.18,1,-0.04411487,1.20877,2.926638,-0.04411487,1.15877,2.926638,-2.118279,0.1995863,2.232012,null,null,
166,temporal,True,False,ao-incongruent,0,0,-39.83887,slide_large_wood (UnityEngine.GameObject),impact_large_metal (UnityEngine.GameObject),1.8572576,null,null,0.18,1,-0.04264465,1.20781,2.928226,-0.04264465,1.15781,2.928226,-2.124882,0.1995036,2.226814,null,null,
167,temporal,True,False,ao-congruent,0,0,-40.52088,impact_large_metal (UnityEngine.GameObject),impact_large_metal (UnityEngine.GameObject),1.8115198,null,null,0.17,1,-0.03451084,1.210473,2.947229,-0.03451084,1.160473,2.947229,-2.148744,0.2034943,2.207483,null,null,
168,temporal,True,False,ao-incongruent,0,0,69.18743,slide_large_wood (UnityEngine.GameObject),impact_large_metal (UnityEngine.GameObject),3.8990219,null,null,0.17,0,-0.01306523,1.217155,3.070501,-0.01306523,1.167155,3.070501,0,0,0,null,null,
169,temporal,True,False,ao-congruent,0,0,-8.24474,impact_large_metal (UnityEngine.GameObject),impact_large_metal (UnityEngine.GameObject),1.8766607,null,null,0.18,1,-0.01730924,1.222279,3.06658,-0.01730924,1.172279,3.06658,-0.4606185,0.850665,2.871719,null,null,
170,temporal,True,False,ao-congruent,0,0,-8.010895,slide_large_metal (UnityEngine.GameObject),slide_large_metal (UnityEngine.GameObject),1.7768482,null,null,0.175,1,-0.01934256,1.216115,3.096651,-0.01934256,1.167115,3.096651,-0.4428687,0.9266292,2.850356,null,null,
171,temporal,True,False,ao-incongruent,0,0,-8.717062,slide_large_wood (UnityEngine.GameObject),impact_large_metal (UnityEngine.GameObject),2.942723,null,null,0.175,1,-0.01736192,1.217695,3.093668,-0.01736192,1.167696,3.093668,-0.4765942,0.9789668,2.831286,null,null,
172,temporal,True,False,ao-incongruent,0,0,-10.54578,impact_large_metal (UnityEngine.GameObject),slide_large_wood (UnityEngine.GameObject),1.5655817,null,null,0.17,1,-0.01929902,1.216649,3.093395,-0.01929902,1.167649,3.093395,-0.5797427,0.9616773,2.826765,null,null,
173,temporal,True,False,ao-incongruent,0,0,69.32106,slide_large_metal (UnityEngine.GameObject),impact_large_wood (UnityEngine.GameObject),3.8993181,null,null,0.17,0,-0.01809218,1.217982,3.09436,-0.01809218,1.167982,3.09436,0,0,0,null,null,
174,temporal,True,False,ao-incongruent,0,0,69.38255,slide_large_wood (UnityEngine.GameObject),impact_large_metal (UnityEngine.GameObject),3.8982405,null,null,0.17,0,-0.02310212,1.213304,3.091973,-0.02310212,1.163304,3.091973,0,0,0,null,null,
175,temporal,True,False,ao-incongruent,0,0,69.39114,slide_large_wood (UnityEngine.GameObject),impact_large_metal (UnityEngine.GameObject),3.8974215,null,null,0,0,-0.0235997,1.212709,3.091797,-0.0235997,1.162709,3.091797,0,0,0,null,different,
176,temporal,True,False,ao-incongruent,0,0,-11.96163,impact_large_metal (UnityEngine.GameObject),slide_large_wood (UnityEngine.GameObject),1.5225117,null,null,0.175,1,-0.02522071,1.209861,3.094302,-0.02522071,1.160861,3.094302,-0.6610726,0.9329005,2.813136,null,null,
177,temporal,True,False,ao-incongruent,0,0,69.43929,slide_large_metal (UnityEngine.GameObject),impact_large_wood (UnityEngine.GameObject),3.8887009,null,null,0.175,0,-0.02554199,1.21069,3.094302,-0.02554199,1.16069,3.094302,0,0,0,null,null,
178,temporal,True,False,ao-incongruent,0,0,-1.906699,slide_large_wood (UnityEngine.GameObject),impact_large_metal (UnityEngine.GameObject),1.8633796,null,null,0.17,1,-0.02936203,1.20926,3.096179,-0.02936203,1.15926,3.096179,-0.1096913,0.8284655,2.911679,null,null,
179,temporal,True,False,ao-incongruent,0,0,-4.067845,slide_large_metal (UnityEngine.GameObject),impact_large_wood (UnityEngine.GameObject),1.8766653,null,null,0.18,1,-0.02829903,1.208671,3.098131,-0.02829903,1.158671,3.098131,-0.2345137,0.8818908,2.883654,null,null,
180,temporal,True,False,ao-incongruent,0,0,-4.673782,slide_large_metal (UnityEngine.GameObject),impact_large_wood (UnityEngine.GameObject),2.2761667,null,null,0.175,1,-0.02743106,1.209121,3.097318,-0.02743106,1.159121,3.097318,-0.2686372,0.8719469,2.88344,null,null,
181,temporal,True,False,ao-congruent,0,0,-7.569968,slide_large_wood (UnityEngine.GameObject),slide_large_wood (UnityEngine.GameObject),1.5445682,null,null,0.18,1,-0.03073118,1.208645,3.095474,-0.03073118,1.159646,3.095474,-0.4485036,0.5757606,2.95224,null,null,
182,temporal,True,False,ao-incongruent,0,0,-8.816215,slide_large_wood (UnityEngine.GameObject),impact_large_metal (UnityEngine.GameObject),2.1992696,null,null,0.175,1,-0.02977074,1.209929,3.095361,-0.02977074,1.159929,3.095361,-0.5179954,0.5421826,2.948968,null,null,
183,temporal,True,False,ao-congruent,0,0,-8.489105,slide_large_metal (UnityEngine.GameObject),slide_large_metal (UnityEngine.GameObject),1.6551524,null,null,0.17,1,-0.0296493,1.209409,3.094933,-0.0296493,1.160409,3.094933,-0.4993114,0.5570315,2.949274,null,null,
184,temporal,True,False,ao-congruent,0,0,-8.773015,impact_large_wood (UnityEngine.GameObject),impact_large_wood (UnityEngine.GameObject),1.608635,null,null,0.18,1,-0.02962593,1.210709,3.09428,-0.02962593,1.160709,3.09428,-0.5155243,0.5419475,2.949225,null,null,
185,spatial,True,False,ao-congruent,8,0,7.039156,impact_large_wood (UnityEngine.GameObject),impact_large_wood (UnityEngine.GameObject),1.8987457,1,1,0,null,-0.04182428,1.212538,2.891118,-0.4593436,1.162538,2.861922,-0.07585792,1.214051,2.787224,null,null,
186,spatial,True,False,ao-congruent,12,0,3.108476,impact_large_metal (UnityEngine.GameObject),impact_large_metal (UnityEngine.GameObject),2.3671859,1,0,0,null,-0.04190527,1.212875,2.890856,-0.6656404,1.162875,2.825299,-0.4879579,1.146419,2.779414,null,null,
187,spatial,True,False,ao-incongruent,16,0,-0.5668277,impact_large_metal (UnityEngine.GameObject),slide_large_wood (UnityEngine.GameObject),1.6660004,0,0,0,null,-0.03089143,1.212061,2.894484,0.7960209,1.163061,2.778269,0.7778839,1.175866,2.700459,null,null,
188,spatial,True,False,ao-incongruent,8,0,-0.9383693,slide_large_wood (UnityEngine.GameObject),impact_large_metal (UnityEngine.GameObject),1.9868566,0,0,0,null,-0.03191626,1.214184,2.893055,-0.4494356,1.164184,2.863859,-0.4718499,1.177499,2.769268,null,null,
189,spatial,True,False,ao-congruent,4,0,1.638292,impact_large_metal (UnityEngine.GameObject),impact_large_metal (UnityEngine.GameObject),1.710951,1,1,0,null,-0.03252956,1.214485,2.892542,-0.241799,1.164485,2.885234,-0.1594164,1.2375,2.766779,null,null,
190,spatial,True,False,ao-incongruent,4,0,2.643306,slide_large_metal (UnityEngine.GameObject),impact_large_wood (UnityEngine.GameObject),1.9323621,1,1,0,null,-0.03279288,1.214887,2.8918,0.1764765,1.164887,2.884492,0.03866284,1.256428,2.768086,null,null,
191,spatial,True,False,ao-incongruent,4,0,0.7694854,slide_large_wood (UnityEngine.GameObject),impact_large_metal (UnityEngine.GameObject),1.7443431,1,0,0,null,-0.0326849,1.21561,2.89078,-0.2419543,1.16561,2.883472,-0.2127369,1.178785,2.793114,null,null,
192,spatial,True,False,ao-congruent,16,0,-0.7499101,impact_large_wood (UnityEngine.GameObject),impact_large_wood (UnityEngine.GameObject),2.4653774,0,0,0,null,-0.03289596,1.215691,2.890491,0.7940163,1.165691,2.774276,0.7933652,1.193892,2.685924,null,null,
193,spatial,True,False,ao-congruent,4,0,-0.9316724,impact_large_wood (UnityEngine.GameObject),impact_large_wood (UnityEngine.GameObject),2.1565744,0,0,0,null,-0.03361978,1.216131,2.889908,-0.2428892,1.166131,2.8826,-0.2504639,1.234366,2.759833,null,null,
194,spatial,True,False,ao-incongruent,4,0,1.897026,impact_large_metal (UnityEngine.GameObject),slide_large_wood (UnityEngine.GameObject),1.9879426,1,1,0,null,-0.03392889,1.215283,2.88991,0.1753405,1.166283,2.882603,0.07905649,1.244059,2.770873,null,null,
195,spatial,True,False,ao-congruent,12,0,3.455531,slide_large_wood (UnityEngine.GameObject),slide_large_wood (UnityEngine.GameObject),1.7657743,1,0,0,null,-0.03456819,1.215861,2.888976,-0.6583033,1.166861,2.823419,-0.4620309,1.162692,2.776932,null,null,
196,spatial,True,False,ao-congruent,8,0,4.869208,impact_large_metal (UnityEngine.GameObject),impact_large_metal (UnityEngine.GameObject),1.6988999,1,1,0,null,-0.03440259,1.217003,2.888423,-0.4519219,1.167003,2.859227,-0.1839647,1.190992,2.789313,null,null,
197,spatial,True,False,ao-congruent,4,0,2.056237,impact_large_metal (UnityEngine.GameObject),impact_large_metal (UnityEngine.GameObject),1.6110275,1,1,0,null,-0.03533652,1.217076,2.888789,-0.2446059,1.167076,2.881481,-0.1346755,1.200467,2.788916,null,null,
198,spatial,True,False,ao-incongruent,8,0,2.143932,slide_large_wood (UnityEngine.GameObject),impact_large_metal (UnityEngine.GameObject),2.0424568,1,0,0,null,-0.03487733,1.217951,2.887165,-0.4523967,1.167951,2.857969,-0.3316739,1.089565,2.811458,null,null,
199,spatial,True,False,ao-congruent,8,0,1.367019,slide_large_metal (UnityEngine.GameObject),slide_large_metal (UnityEngine.GameObject),1.9997542,1,0,0,null,-0.03618012,1.217082,2.887102,-0.4536995,1.168082,2.857906,-0.3880716,1.29665,2.713513,null,null,
200,spatial,True,False,ao-congruent,16,0,2.255332,slide_large_metal (UnityEngine.GameObject),slide_large_metal (UnityEngine.GameObject),1.8880431,1,0,0,null,-0.03651535,1.217383,2.886594,-0.8634276,1.168383,2.770379,-0.7278247,1.149566,2.725319,null,null,
201,spatial,True,False,ao-congruent,16,0,-1.262071,impact_large_metal (UnityEngine.GameObject),impact_large_metal (UnityEngine.GameObject),2.0334201,0,0,0,null,-0.03685813,1.218627,2.885838,-0.8637704,1.168627,2.769623,-0.9059027,1.09262,2.691355,null,null,
202,spatial,True,False,ao-congruent,12,0,10.97598,impact_large_wood (UnityEngine.GameObject),impact_large_wood (UnityEngine.GameObject),1.9092545,1,1,0,null,-0.03721976,1.218523,2.885996,-0.6609548,1.168523,2.820438,-0.06541316,1.24281,2.772841,null,null,
203,spatial,True,False,ao-incongruent,4,0,3.124995,slide_large_wood (UnityEngine.GameObject),impact_large_metal (UnityEngine.GameObject),2.0877801,1,1,0,null,-0.03733321,1.218395,2.885956,-0.2466026,1.168395,2.878648,-0.07670001,1.130725,2.823113,null,null,
204,spatial,True,False,ao-congruent,16,0,6.528376,slide_large_metal (UnityEngine.GameObject),slide_large_metal (UnityEngine.GameObject),2.0317732,1,0,0,null,-0.03759419,1.217803,2.885069,0.7893181,1.168803,2.768854,0.425694,1.290731,2.713107,null,null,
205,spatial,True,False,ao-congruent,16,0,-0.6486109,impact_large_metal (UnityEngine.GameObject),impact_large_metal (UnityEngine.GameObject),1.9205276,0,0,0,null,-0.03564905,1.218909,2.886345,0.7912632,1.168909,2.77013,0.7795546,1.203156,2.684802,null,null,
206,spatial,True,False,ao-congruent,12,0,1.217079,impact_large_metal (UnityEngine.GameObject),impact_large_metal (UnityEngine.GameObject),1.7109629,1,0,0,null,-0.0350724,1.21065,2.891617,-0.6588075,1.16065,2.826059,-0.5858457,1.088852,2.785875,null,null,
207,spatial,True,False,ao-congruent,4,0,2.16338,slide_large_metal (UnityEngine.GameObject),slide_large_metal (UnityEngine.GameObject),1.6573308,1,1,0,null,-0.03691836,1.21166,2.890697,-0.2461878,1.16266,2.883389,-0.151822,1.406068,2.677397,null,null,
208,spatial,True,False,ao-incongruent,8,0,3.691463,slide_large_metal (UnityEngine.GameObject),impact_large_wood (UnityEngine.GameObject),1.9228093,1,0,0,null,-0.03681918,1.212874,2.890331,0.3807001,1.162874,2.861135,0.1780593,1.212795,2.77821,null,null,
209,spatial,True,False,ao-incongruent,12,0,4.545924,slide_large_wood (UnityEngine.GameObject),impact_large_metal (UnityEngine.GameObject),1.8337188,1,0,0,null,-0.03691529,1.212987,2.889728,-0.6606504,1.162987,2.824171,-0.4060656,1.162652,2.782244,null,null,
210,spatial,True,False,ao-incongruent,8,0,6.328681,impact_large_metal (UnityEngine.GameObject),slide_large_wood (UnityEngine.GameObject),2.1189752,1,1,0,null,-0.03735641,1.211697,2.890231,-0.4548757,1.162697,2.861035,-0.1092756,1.228031,2.776587,null,null,
211,spatial,True,False,ao-congruent,8,0,4.722109,slide_large_wood (UnityEngine.GameObject),slide_large_wood (UnityEngine.GameObject),1.7331296,1,0,0,null,-0.0373698,1.211242,2.88913,0.3801495,1.162242,2.859934,0.1229414,1.246376,2.765479,null,null,
212,spatial,True,False,ao-congruent,16,0,4.816986,slide_large_wood (UnityEngine.GameObject),slide_large_wood (UnityEngine.GameObject),1.7666621,1,0,0,null,-0.03753572,1.211133,2.889299,0.7893766,1.162133,2.773084,0.5164946,1.264727,2.71841,null,null,
213,spatial,True,False,ao-incongruent,4,0,4.063944,impact_large_metal (UnityEngine.GameObject),slide_large_wood (UnityEngine.GameObject),2.1318741,1,1,0,null,-0.03830076,1.211299,2.88919,-0.2475702,1.162299,2.881883,-0.02961729,1.246669,2.774168,null,null,
214,spatial,True,False,ao-congruent,4,0,4.916016,slide_large_metal (UnityEngine.GameObject),slide_large_metal (UnityEngine.GameObject),3.0327598,1,1,0,null,-0.03918291,1.211024,2.889678,-0.2484523,1.162024,2.88237,0.01664042,1.193011,2.804068,null,null,
215,spatial,True,False,ao-incongruent,8,0,2.515829,slide_large_metal (UnityEngine.GameObject),impact_large_wood (UnityEngine.GameObject),1.7862673,1,0,0,null,-0.04414553,1.210477,2.908448,0.3733738,1.160477,2.879252,0.2335809,1.171671,2.794935,null,null,
216,spatial,True,False,ao-congruent,8,0,2.704505,impact_large_metal (UnityEngine.GameObject),impact_large_metal (UnityEngine.GameObject),1.677928,1,0,0,null,-0.04197252,1.212714,2.906334,-0.4594918,1.162714,2.877138,-0.306577,1.123401,2.80357,null,null,
217,spatial,True,False,ao-incongruent,16,0,2.025841,impact_large_metal (UnityEngine.GameObject),slide_large_wood (UnityEngine.GameObject),1.7000695,1,0,0,null,-0.04257827,1.211568,2.907079,0.784334,1.162568,2.790864,0.6590685,1.22836,2.705926,null,null,
218,spatial,True,False,ao-congruent,12,0,2.970254,slide_large_wood (UnityEngine.GameObject),slide_large_wood (UnityEngine.GameObject),2.0878004,1,0,0,null,-0.04442963,1.212153,2.908124,-0.6681647,1.163153,2.842566,-0.4941039,1.182853,2.7643,null,null,
219,spatial,True,False,ao-congruent,8,0,6.320899,impact_large_wood (UnityEngine.GameObject),impact_large_wood (UnityEngine.GameObject),1.7210896,1,1,0,null,-0.04209688,1.212507,2.909156,-0.4596162,1.162507,2.879961,-0.1128459,1.271412,2.753062,null,null,
220,spatial,True,False,ao-congruent,4,0,4.630836,slide_large_wood (UnityEngine.GameObject),slide_large_wood (UnityEngine.GameObject),2.3672511,1,1,0,null,-0.04376533,1.212369,2.907018,-0.2530347,1.16337,2.89971,-0.003817889,1.233573,2.78361,null,null,
221,spatial,True,False,ao-incongruent,4,0,1.641991,slide_large_wood (UnityEngine.GameObject),impact_large_metal (UnityEngine.GameObject),2.0202476,1,1,0,null,-0.04386272,1.213386,2.907235,0.1654067,1.163386,2.899927,0.07770897,1.09309,2.834425,null,null,
222,spatial,True,False,ao-incongruent,12,0,5.182475,impact_large_metal (UnityEngine.GameObject),slide_large_wood (UnityEngine.GameObject),1.9893763,1,0,0,null,-0.05554496,1.201185,2.929214,-0.67928,1.152185,2.863657,-0.3827761,1.190787,2.770599,null,null,
223,spatial,True,False,ao-congruent,16,0,1.040046,slide_large_metal (UnityEngine.GameObject),slide_large_metal (UnityEngine.GameObject),1.7666063,1,0,0,null,-0.05365933,1.205295,2.927084,-0.8805716,1.156295,2.810869,-0.8105589,1.026002,2.740174,null,null,
224,spatial,True,False,ao-congruent,12,0,7.945889,impact_large_wood (UnityEngine.GameObject),impact_large_wood (UnityEngine.GameObject),2.0662387,1,0,0,null,-0.04840773,1.205492,2.914984,0.5753273,1.155492,2.849427,0.1398303,1.275831,2.748136,null,null,
225,spatial,True,False,ao-incongruent,8,0,-1.162306,slide_large_metal (UnityEngine.GameObject),impact_large_wood (UnityEngine.GameObject),2.1244337,0,0,0,null,-0.04970073,1.205451,2.916907,0.3678186,1.155451,2.887712,0.4049548,1.157208,2.783992,null,null,
226,spatial,True,False,ao-congruent,8,0,4.106418,impact_large_metal (UnityEngine.GameObject),impact_large_metal (UnityEngine.GameObject),1.7880752,1,0,0,null,-0.04932246,1.205155,2.916941,0.3681969,1.155155,2.887745,0.1423662,1.177175,2.800629,null,null,
227,spatial,True,False,ao-congruent,12,0,-1.136944,slide_large_metal (UnityEngine.GameObject),slide_large_metal (UnityEngine.GameObject),1.8222236,0,0,0,null,-0.05106346,1.204191,2.916643,0.5726716,1.155191,2.851086,0.5748707,1.267237,2.708868,null,null,
228,spatial,True,False,ao-congruent,12,0,3.499614,slide_large_wood (UnityEngine.GameObject),slide_large_wood (UnityEngine.GameObject),1.6322293,1,0,0,null,-0.05137729,1.204261,2.916547,0.5723578,1.155261,2.85099,0.3723541,1.230192,2.750516,null,null,
229,spatial,True,False,ao-incongruent,16,0,4.227997,slide_large_wood (UnityEngine.GameObject),impact_large_metal (UnityEngine.GameObject),1.7786629,1,0,0,null,-0.05141013,1.205667,2.914783,-0.8783224,1.155667,2.798568,-0.6375819,1.053594,2.781911,null,null,
230,spatial,True,False,ao-incongruent,8,0,2.494891,slide_large_wood (UnityEngine.GameObject),impact_large_metal (UnityEngine.GameObject),1.8664664,1,0,0,null,-0.05185408,1.205833,2.91473,-0.4693734,1.155833,2.885534,-0.3276292,1.050604,2.82366,null,null,
231,spatial,True,False,ao-incongruent,12,0,5.852366,slide_large_wood (UnityEngine.GameObject),impact_large_metal (UnityEngine.GameObject),1.7860324,1,0,0,null,-0.05252564,1.205601,2.915145,-0.6762607,1.155601,2.849588,-0.3501935,1.054657,2.820294,null,null,
232,spatial,True,False,ao-congruent,16,0,7.678386,impact_large_wood (UnityEngine.GameObject),impact_large_wood (UnityEngine.GameObject),1.8555171,1,0,0,null,-0.05326091,1.205647,2.915802,0.7736514,1.155647,2.799587,0.351797,1.164784,2.786727,null,null,
233,spatial,True,False,ao-congruent,4,0,3.529641,slide_large_metal (UnityEngine.GameObject),slide_large_metal (UnityEngine.GameObject),1.652324,1,1,0,null,-0.05313691,1.204744,2.91539,0.1561325,1.155744,2.908083,-0.03392214,1.110748,2.833224,null,null,
234,spatial,True,False,ao-congruent,12,0,1.798201,slide_large_metal (UnityEngine.GameObject),slide_large_metal (UnityEngine.GameObject),1.5756758,1,0,0,null,-0.05273699,1.205484,2.913631,-0.6764721,1.156484,2.848073,-0.5672531,1.144377,2.772526,null,null,
235,spatial,True,False,ao-incongruent,12,0,4.286057,slide_large_metal (UnityEngine.GameObject),impact_large_wood (UnityEngine.GameObject),1.876306,1,0,0,null,-0.0493786,1.206155,2.91346,-0.6731137,1.156155,2.847903,-0.4319234,1.037686,2.817704,null,null,
236,spatial,True,False,ao-incongruent,4,0,0.948326,slide_large_wood (UnityEngine.GameObject),impact_large_metal (UnityEngine.GameObject),2.1783859,1,0,0,null,-0.04971623,1.206651,2.912994,0.1595532,1.156651,2.905686,0.1199332,1.167498,2.807856,null,null,
237,spatial,True,False,ao-incongruent,16,0,4.339734,slide_large_wood (UnityEngine.GameObject),impact_large_metal (UnityEngine.GameObject),2.1003661,1,0,0,null,-0.05007363,1.206429,2.913087,-0.8769859,1.156429,2.796872,-0.6283104,1.101803,2.769406,null,null,
238,spatial,True,False,ao-incongruent,16,0,3.280262,impact_large_metal (UnityEngine.GameObject),slide_large_wood (UnityEngine.GameObject),2.5439384,1,0,0,null,-0.05082941,1.205306,2.913114,0.7760829,1.156306,2.796899,0.583934,1.22104,2.731905,null,null,
239,spatial,True,False,ao-incongruent,16,0,2.970386,slide_large_wood (UnityEngine.GameObject),impact_large_metal (UnityEngine.GameObject),2.3336509,1,0,0,null,-0.04960279,1.206968,2.912557,0.7773095,1.156968,2.796342,0.6072174,1.125393,2.768089,null,null,
240,spatial,True,False,ao-incongruent,12,0,-1.106768,slide_large_wood (UnityEngine.GameObject),impact_large_metal (UnityEngine.GameObject),1.9427695,0,0,0,null,-0.05018861,1.206775,2.912694,-0.6739237,1.156775,2.847136,-0.7056337,1.068471,2.757373,null,null,
241,spatial,True,False,ao-incongruent,12,0,0.8699816,slide_large_wood (UnityEngine.GameObject),impact_large_metal (UnityEngine.GameObject),2.0764088,1,0,0,null,-0.05040582,1.207092,2.912266,-0.6741409,1.157092,2.846709,-0.6215244,1.114631,2.767338,null,null,
242,spatial,True,False,ao-incongruent,16,0,3.010189,slide_large_metal (UnityEngine.GameObject),impact_large_wood (UnityEngine.GameObject),2.208192,1,0,0,null,-0.05010899,1.207412,2.911366,-0.8770213,1.157412,2.795151,-0.6964712,1.13582,2.738799,null,null,
243,spatial,True,False,ao-congruent,16,0,1.558841,slide_large_wood (UnityEngine.GameObject),slide_large_wood (UnityEngine.GameObject),2.0100604,1,0,0,null,-0.05107465,1.206406,2.911316,0.7758377,1.157406,2.795101,0.6775347,1.219357,2.705546,null,null,
244,spatial,True,False,ao-congruent,4,0,2.707254,slide_large_wood (UnityEngine.GameObject),slide_large_wood (UnityEngine.GameObject),1.8230025,1,1,0,null,-0.05012035,1.206623,2.911199,-0.2593898,1.157624,2.903891,-0.1156879,1.239957,2.769606,null,null,
245,spatial,True,False,ao-incongruent,4,0,3.408294,slide_large_metal (UnityEngine.GameObject),impact_large_wood (UnityEngine.GameObject),1.9094821,1,1,0,null,-0.05032337,1.207241,2.91137,-0.2595928,1.157241,2.904062,-0.0758475,1.215333,2.78654,null,null,
246,spatial,True,False,ao-incongruent,8,0,-0.6821364,impact_large_metal (UnityEngine.GameObject),slide_large_wood (UnityEngine.GameObject),1.8323232,0,0,0,null,-0.04577759,1.209341,2.911453,-0.4632969,1.160342,2.882257,-0.452439,1.138317,2.785235,null,null,
247,spatial,True,False,ao-incongruent,8,0,2.382527,impact_large_metal (UnityEngine.GameObject),slide_large_wood (UnityEngine.GameObject),1.7433001,1,0,0,null,-0.04804066,1.208637,2.910205,0.3694787,1.159637,2.881009,0.2381579,1.215428,2.771113,null,null,
248,spatial,True,False,ao-congruent,8,0,0.9863558,slide_large_wood (UnityEngine.GameObject),slide_large_wood (UnityEngine.GameObject),1.5990599,1,0,0,null,-0.04772455,1.207843,2.912174,-0.4652439,1.158843,2.882979,-0.4127218,1.138492,2.788943,null,null,
249,spatial,True,False,ao-incongruent,12,0,5.488658,impact_large_metal (UnityEngine.GameObject),slide_large_wood (UnityEngine.GameObject),1.731028,1,0,0,null,-0.04852894,1.207729,2.912548,0.5752062,1.158729,2.846991,0.2695461,1.232254,2.759148,null,null,
250,spatial,True,False,ao-incongruent,16,0,4.647219,slide_large_wood (UnityEngine.GameObject),impact_large_metal (UnityEngine.GameObject),1.9882659,1,0,0,null,-0.04792601,1.208918,2.911738,0.7789863,1.158918,2.795523,0.5186054,1.158576,2.772817,null,null,
251,spatial,True,False,ao-congruent,4,0,2.733517,impact_large_metal (UnityEngine.GameObject),impact_large_metal (UnityEngine.GameObject),1.7450319,1,1,0,null,-0.04688504,1.208615,2.912015,-0.2561544,1.158615,2.904707,-0.1108687,1.235423,2.772486,null,null,
252,spatial,True,False,ao-congruent,4,0,1.073743,slide_large_wood (UnityEngine.GameObject),slide_large_wood (UnityEngine.GameObject),1.5428573,1,0,0,null,-0.0479155,1.207561,2.912009,0.1613539,1.158561,2.904701,0.1387126,1.255346,2.759192,null,null,
253,spatial,True,False,ao-incongruent,12,0,3.494968,slide_large_wood (UnityEngine.GameObject),impact_large_metal (UnityEngine.GameObject),1.8429459,1,0,0,null,-0.04789992,1.208511,2.911924,-0.671635,1.158511,2.846367,-0.4700521,1.138632,2.783472,null,null,
254,spatial,True,False,ao-incongruent,12,0,3.165886,impact_large_metal (UnityEngine.GameObject),slide_large_wood (UnityEngine.GameObject),1.5539288,1,0,0,null,-0.04824624,1.207188,2.912332,0.5754888,1.158188,2.846775,0.3936338,1.23197,2.74755,null,null,
255,spatial,True,False,ao-congruent,8,0,8.643202,impact_large_wood (UnityEngine.GameObject),impact_large_wood (UnityEngine.GameObject),1.6549527,1,1,0,null,-0.0472525,1.208389,2.911447,0.3702668,1.158389,2.882251,-0.09436288,1.256056,2.76302,null,null,
256,spatial,True,False,ao-congruent,8,0,2.131021,slide_large_metal (UnityEngine.GameObject),slide_large_metal (UnityEngine.GameObject),1.9011646,1,0,0,null,-0.04800953,1.207058,2.9122,-0.4655288,1.158058,2.883004,-0.3442549,1.189551,2.774907,null,null,
257,spatial,True,False,ao-congruent,16,0,1.440622,impact_large_metal (UnityEngine.GameObject),impact_large_metal (UnityEngine.GameObject),1.9987991,1,0,0,null,-0.04839294,1.208132,2.912002,0.7785193,1.158132,2.795787,0.6871999,1.212415,2.706586,null,null,
258,spatial,True,False,ao-incongruent,16,0,-3.818237,slide_large_metal (UnityEngine.GameObject),impact_large_wood (UnityEngine.GameObject),2.2551887,0,0,0,null,-0.03239031,1.202165,2.915173,0.794522,1.152165,2.798958,0.9465687,1.231103,2.620564,null,null,
259,spatial,True,False,ao-incongruent,16,0,0.8232948,slide_large_metal (UnityEngine.GameObject),impact_large_wood (UnityEngine.GameObject),2.054937,1,0,0,null,-0.05774409,1.204137,2.915195,-0.8846564,1.154137,2.79898,-0.8315244,1.103062,2.70975,null,null,
260,spatial,True,False,ao-incongruent,8,0,2.578533,slide_large_wood (UnityEngine.GameObject),impact_large_metal (UnityEngine.GameObject),1.91208,1,0,0,null,-0.0416707,1.204026,2.914396,0.3758486,1.154026,2.885201,0.2337001,1.224664,2.766598,null,null,
261,spatial,True,False,ao-congruent,4,0,4.637725,impact_large_wood (UnityEngine.GameObject),impact_large_wood (UnityEngine.GameObject),1.9765582,1,1,0,null,-0.03481454,1.206088,2.918801,0.1744549,1.156088,2.911494,-0.07193237,1.217082,2.785976,null,null,
262,spatial,True,False,ao-incongruent,4,0,2.415488,slide_large_wood (UnityEngine.GameObject),impact_large_metal (UnityEngine.GameObject),2.2079627,1,1,0,null,-0.03751357,1.206971,2.917246,0.1717558,1.156971,2.909939,0.04302409,1.156859,2.818365,null,null,
263,spatial,True,False,ao-incongruent,4,0,1.026792,slide_large_wood (UnityEngine.GameObject),impact_large_metal (UnityEngine.GameObject),2.1430221,1,0,0,null,-0.0390096,1.207293,2.917661,0.1702598,1.157293,2.910353,0.1208784,1.106926,2.826141,null,null,
264,spatial,True,False,ao-incongruent,8,0,4.21784,slide_large_wood (UnityEngine.GameObject),impact_large_metal (UnityEngine.GameObject),1.9979789,1,0,0,null,-0.03742378,1.210012,2.918827,0.3800955,1.160012,2.889631,0.1476074,1.17166,2.80308,null,null,
265,spatial,True,False,ao-congruent,12,0,1.64877,slide_large_metal (UnityEngine.GameObject),slide_large_metal (UnityEngine.GameObject),1.8763741,1,0,0,null,-0.03878378,1.208142,2.919198,-0.6625189,1.159142,2.85364,-0.5619085,1.154627,2.769923,null,null,
266,spatial,True,False,ao-incongruent,12,0,4.522034,slide_large_wood (UnityEngine.GameObject),impact_large_metal (UnityEngine.GameObject),1.9329509,1,0,0,null,-0.03967837,1.209423,2.918621,0.5840567,1.159423,2.853063,0.3287322,1.217728,2.761308,null,null,
267,spatial,True,False,ao-incongruent,12,0,4.547561,slide_large_metal (UnityEngine.GameObject),impact_large_wood (UnityEngine.GameObject),2.0869171,1,0,0,null,-0.04058229,1.209045,2.918717,0.5831528,1.159045,2.85316,0.3268096,1.20585,2.767839,null,null,
268,spatial,True,False,ao-incongruent,8,0,4.316519,slide_large_wood (UnityEngine.GameObject),impact_large_metal (UnityEngine.GameObject),1.8659128,1,0,0,null,-0.04085288,1.210799,2.917665,0.3766665,1.160799,2.888469,0.1391272,1.182045,2.798332,null,null,
269,spatial,True,False,ao-congruent,12,0,-4.059605,impact_large_metal (UnityEngine.GameObject),impact_large_metal (UnityEngine.GameObject),1.8651892,0,0,0,null,-0.04050566,1.208781,2.919755,-0.6642407,1.158781,2.854197,-0.8495474,1.09411,2.707318,null,null,
270,spatial,True,False,ao-incongruent,16,0,3.282291,slide_large_wood (UnityEngine.GameObject),impact_large_metal (UnityEngine.GameObject),1.8534863,1,0,0,null,-0.03947333,1.209002,2.918828,-0.8663856,1.159002,2.802613,-0.6751189,1.054097,2.770806,null,null,
271,spatial,True,False,ao-congruent,4,0,4.480958,impact_large_wood (UnityEngine.GameObject),impact_large_wood (UnityEngine.GameObject),1.7567571,1,1,0,null,-0.0405447,1.208876,2.918548,0.1687247,1.158876,2.91124,-0.0689299,1.220578,2.784391,null,null,
272,spatial,True,False,ao-incongruent,4,0,3.309496,impact_large_metal (UnityEngine.GameObject),slide_large_wood (UnityEngine.GameObject),1.5558435,1,1,0,null,-0.03980837,1.20765,2.918493,-0.2490778,1.15865,2.911185,-0.07157692,1.222602,2.783059,null,null,
273,spatial,True,False,ao-incongruent,12,0,4.666274,slide_large_metal (UnityEngine.GameObject),impact_large_wood (UnityEngine.GameObject),2.0331642,1,0,0,null,-0.03988734,1.208342,2.918767,0.5838478,1.158342,2.85321,0.3205321,1.232724,2.754069,null,null,
274,spatial,True,False,ao-congruent,16,0,2.183371,slide_large_wood (UnityEngine.GameObject),slide_large_wood (UnityEngine.GameObject),1.8116655,1,0,0,null,-0.04026335,1.207306,2.91871,-0.8671756,1.158306,2.802495,-0.7295105,1.157661,2.722274,null,null,
275,spatial,True,False,ao-congruent,12,0,10.16109,impact_large_wood (UnityEngine.GameObject),impact_large_wood (UnityEngine.GameObject),1.8985249,1,1,0,null,-0.04037896,1.208138,2.918477,-0.6641141,1.158138,2.85292,-0.1063515,1.2316,2.774956,null,null,
276,spatial,True,False,ao-congruent,16,0,13.70276,impact_large_wood (UnityEngine.GameObject),impact_large_wood (UnityEngine.GameObject),1.6992462,1,1,0,null,-0.04039492,1.208184,2.918065,-0.8673072,1.158184,2.80185,-0.1183134,1.261738,2.757715,null,null,
277,spatial,True,False,ao-incongruent,4,0,4.16631,slide_large_metal (UnityEngine.GameObject),impact_large_wood (UnityEngine.GameObject),2.8219538,1,1,0,null,-0.04167268,1.207916,2.918195,-0.2509421,1.157916,2.910887,-0.02560405,1.196038,2.80161,null,null,
278,spatial,True,False,ao-congruent,8,0,8.56011,slide_large_wood (UnityEngine.GameObject),slide_large_wood (UnityEngine.GameObject),1.8235798,1,1,0,null,-0.04230594,1.206798,2.91856,-0.4598253,1.157798,2.889364,0.006601427,1.229994,2.785251,null,null,
279,spatial,True,False,ao-congruent,8,0,4.933719,slide_large_metal (UnityEngine.GameObject),slide_large_metal (UnityEngine.GameObject),2.4547932,1,1,0,null,-0.04188492,1.206936,2.918121,-0.4594043,1.157936,2.888925,-0.1853883,1.200651,2.784016,null,null,
280,spatial,True,False,ao-incongruent,16,0,2.320771,slide_large_wood (UnityEngine.GameObject),impact_large_metal (UnityEngine.GameObject),3.2006127,1,0,0,null,-0.04210161,1.20806,2.917825,0.7848107,1.15806,2.80161,0.64619,1.151419,2.748514,null,null,
281,temporal,True,True,ao-incongruent,0,0,68.83554,slide_large_wood (UnityEngine.GameObject),impact_large_metal (UnityEngine.GameObject),3.8973888,null,null,0.175,0,-0.06508978,1.19468,2.955884,-0.06508978,1.14468,2.955884,0,0,0,null,null,
282,temporal,True,False,ao-congruent,0,0,-5.958253,impact_large_metal (UnityEngine.GameObject),impact_large_metal (UnityEngine.GameObject),2.0542817,null,null,0.18,1,-0.06745262,1.197105,2.951155,-0.06745262,1.147105,2.951155,-0.3942466,0.7297225,2.91469,null,null,
283,temporal,True,False,ao-incongruent,0,0,68.73151,slide_large_metal (UnityEngine.GameObject),impact_large_wood (UnityEngine.GameObject),3.8869564,null,null,0.175,0,-0.06223272,1.199311,2.951971,-0.06223272,1.149311,2.951971,0,0,0,null,null,
284,temporal,True,False,ao-incongruent,0,0,68.80189,slide_large_metal (UnityEngine.GameObject),impact_large_wood (UnityEngine.GameObject),3.8990568,null,null,0.18,0,-0.06983048,1.197107,2.956884,-0.06983048,1.147107,2.956884,0,0,0,null,null,
285,temporal,True,False,ao-incongruent,0,0,-4.981889,slide_large_wood (UnityEngine.GameObject),impact_large_metal (UnityEngine.GameObject),2.1969026,null,null,0.18,1,-0.07704614,1.197547,2.952399,-0.07704614,1.147547,2.952399,-0.3506159,0.7167462,2.922758,null,null,
286,temporal,True,False,ao-congruent,0,0,-9.230459,slide_large_metal (UnityEngine.GameObject),slide_large_metal (UnityEngine.GameObject),1.7218824,null,null,0.17,1,-0.08102087,1.194957,2.948175,-0.08102087,1.145957,2.948175,-0.5866494,0.7545952,2.888928,null,null,
287,temporal,True,False,ao-incongruent,0,0,68.85647,slide_large_metal (UnityEngine.GameObject),impact_large_wood (UnityEngine.GameObject),3.9006815,null,null,0.17,0,-0.07962438,1.197268,2.965434,-0.07962438,1.147268,2.965434,0,0,0,null,null,
288,temporal,True,False,ao-congruent,0,0,10.99591,impact_large_metal (UnityEngine.GameObject),impact_large_metal (UnityEngine.GameObject),1.6773669,null,null,0.17,1,-0.07950414,1.195992,2.970294,-0.07950414,1.145992,2.970294,0.5043359,1.109992,2.788906,null,null,
289,temporal,True,False,ao-congruent,0,0,1.790238,impact_large_metal (UnityEngine.GameObject),impact_large_metal (UnityEngine.GameObject),1.733369,null,null,0.17,1,-0.1053642,1.179924,2.998989,-0.1053642,1.129924,2.998989,-0.008320542,0.8059642,2.928102,null,null,
290,temporal,True,False,ao-incongruent,0,0,69.42615,slide_large_wood (UnityEngine.GameObject),impact_large_metal (UnityEngine.GameObject),3.8977611,null,null,0.17,0,-0.1133847,1.175779,2.997098,-0.1133847,1.125779,2.997098,0,0,0,null,null,
291,temporal,True,False,ao-incongruent,0,0,68.67167,slide_large_wood (UnityEngine.GameObject),impact_large_metal (UnityEngine.GameObject),3.8964589,null,null,0.18,0,-0.1002478,1.19827,2.939154,-0.1002478,1.14827,2.939154,0,0,0,null,null,
292,temporal,True,False,ao-congruent,0,0,-3.210833,impact_large_metal (UnityEngine.GameObject),impact_large_metal (UnityEngine.GameObject),1.7546597,null,null,0.17,1,-0.1290255,1.180019,2.963649,-0.1290255,1.130019,2.963649,-0.1495982,-1.666223,2.538482,null,null,
293,temporal,True,False,ao-incongruent,0,0,69.15332,slide_large_wood (UnityEngine.GameObject),impact_large_metal (UnityEngine.GameObject),3.8873705,null,null,0.18,0,-0.1300978,1.179032,2.962064,-0.1300978,1.129032,2.962064,0,0,0,null,null,
294,temporal,True,False,ao-congruent,0,0,-7.803334,impact_large_metal (UnityEngine.GameObject),impact_large_metal (UnityEngine.GameObject),1.6650334,null,null,0.175,1,-0.1313472,1.178619,2.961796,-0.1313472,1.128619,2.961796,-0.1610921,-2.211655,2.076571,null,null,
295,temporal,True,False,ao-congruent,0,0,-7.922609,impact_large_wood (UnityEngine.GameObject),impact_large_wood (UnityEngine.GameObject),1.7092223,null,null,0.17,1,-0.1325272,1.17792,2.9616,-0.1325272,1.12792,2.9616,-0.1540576,-2.223312,2.063034,null,null,
296,temporal,True,False,ao-incongruent,0,0,-8.17839,slide_large_wood (UnityEngine.GameObject),impact_large_metal (UnityEngine.GameObject),1.755289,null,null,0.18,1,-0.1340867,1.177391,2.962141,-0.1340867,1.127391,2.962141,-0.1583406,-2.239765,2.04258,null,null,
297,temporal,True,False,ao-incongruent,0,0,-7.966196,slide_large_metal (UnityEngine.GameObject),impact_large_wood (UnityEngine.GameObject),1.7991804,null,null,0.175,1,-0.1357907,1.177099,2.961638,-0.1357907,1.127099,2.961638,-0.1493086,-2.228884,2.056693,null,null,
298,temporal,True,False,ao-incongruent,0,0,-7.817508,slide_large_metal (UnityEngine.GameObject),impact_large_wood (UnityEngine.GameObject),1.8300899,null,null,0.17,1,-0.138218,1.177085,2.960583,-0.138218,1.127085,2.960583,-0.1401765,-2.222108,2.065814,null,null,
299,temporal,True,False,ao-congruent,0,0,69.16418,impact_large_wood (UnityEngine.GameObject),impact_large_wood (UnityEngine.GameObject),3.8874236,null,null,0.17,0,-0.1409538,1.177124,2.958239,-0.1409538,1.127124,2.958239,0,0,0,null,null,
300,temporal,True,False,ao-congruent,0,0,-8.753244,slide_large_metal (UnityEngine.GameObject),slide_large_metal (UnityEngine.GameObject),1.5201771,null,null,0.18,1,-0.1426379,1.176514,2.957699,-0.1426379,1.127514,2.957699,-0.2044493,-2.26217,2.010914,null,null,
301,temporal,True,False,ao-congruent,0,0,-7.967206,slide_large_metal (UnityEngine.GameObject),slide_large_metal (UnityEngine.GameObject),1.3975767,null,null,0.18,1,-0.1433997,1.176341,2.957299,-0.1433997,1.127341,2.957299,-0.1833139,-2.219264,2.065196,null,null,
302,temporal,True,False,ao-incongruent,0,0,69.16042,slide_large_metal (UnityEngine.GameObject),impact_large_wood (UnityEngine.GameObject),3.8978978,null,null,0.18,0,-0.1474692,1.177192,2.957515,-0.1474692,1.127192,2.957515,0,0,0,null,null,
303,temporal,True,False,ao-congruent,0,0,6.854606,impact_large_metal (UnityEngine.GameObject),impact_large_metal (UnityEngine.GameObject),1.6109137,null,null,0.18,1,-0.129181,1.178065,2.953105,-0.129181,1.128065,2.953105,-0.006252065,-2.134522,2.176029,null,null,
304,temporal,True,False,ao-congruent,0,0,12.55176,slide_large_wood (UnityEngine.GameObject),slide_large_wood (UnityEngine.GameObject),1.7219435,null,null,0.17,1,-0.1311402,1.186268,2.959972,-0.1311402,1.137268,2.959972,0.4309267,-1.849242,2.369936,null,null,
305,temporal,True,False,ao-incongruent,0,0,11.36385,slide_large_wood (UnityEngine.GameObject),impact_large_metal (UnityEngine.GameObject),1.7888187,null,null,0.18,1,-0.1263241,1.181338,2.967594,-0.1263241,1.131338,2.967594,0.3137884,-2.060806,2.2074,null,null,
306,temporal,True,False,ao-congruent,0,0,10.97707,impact_large_wood (UnityEngine.GameObject),impact_large_wood (UnityEngine.GameObject),1.6664101,null,null,0.18,1,-0.1227066,1.179521,2.969114,-0.1227066,1.129521,2.969114,0.3247764,-1.971879,2.279339,null,null,
307,temporal,True,False,ao-congruent,0,0,8.241286,slide_large_metal (UnityEngine.GameObject),slide_large_metal (UnityEngine.GameObject),1.6664782,null,null,0.18,1,-0.1168375,1.17916,2.957744,-0.1168375,1.13016,2.957744,0.2113508,-1.895201,2.353007,null,null,
308,temporal,True,False,ao-congruent,0,0,7.506972,slide_large_wood (UnityEngine.GameObject),slide_large_wood (UnityEngine.GameObject),1.5213157,null,null,0.175,1,-0.1105662,1.183106,2.950696,-0.1105662,1.134106,2.950696,0.1881131,-1.859115,2.384822,null,null,
309,temporal,True,False,ao-congruent,0,0,8.268332,impact_large_wood (UnityEngine.GameObject),impact_large_wood (UnityEngine.GameObject),1.8551381,null,null,0.17,1,-0.1207132,1.179762,2.957704,-0.1207132,1.129762,2.957704,0.2251263,-1.841142,2.396068,null,null,
310,temporal,True,False,ao-congruent,0,0,8.544149,slide_large_wood (UnityEngine.GameObject),slide_large_wood (UnityEngine.GameObject),1.4228838,null,null,0.175,1,-0.1225364,1.17763,2.959213,-0.1225364,1.12863,2.959213,0.2224108,-1.896832,2.350621,null,null,
311,temporal,True,False,ao-congruent,0,0,8.084394,slide_large_wood (UnityEngine.GameObject),slide_large_wood (UnityEngine.GameObject),1.4084475,null,null,0.18,1,-0.1231084,1.177172,2.95944,-0.1231084,1.128172,2.95944,0.1929508,-1.910328,2.342334,null,null,
312,temporal,True,False,ao-incongruent,0,0,26.62448,impact_large_metal (UnityEngine.GameObject),slide_large_wood (UnityEngine.GameObject),1.5313676,null,null,0.18,1,-0.1249248,1.177977,2.958487,-0.1249248,1.128977,2.958487,1.340897,-0.1024379,2.742889,null,null,
313,temporal,True,False,ao-incongruent,0,0,69.12039,slide_large_metal (UnityEngine.GameObject),impact_large_wood (UnityEngine.GameObject),3.8987719,null,null,0.18,0,-0.1255556,1.178923,2.956852,-0.1255556,1.128923,2.956852,0,0,0,null,null,
314,temporal,True,False,ao-incongruent,0,0,69.12123,slide_large_wood (UnityEngine.GameObject),impact_large_metal (UnityEngine.GameObject),3.9021711,null,null,0.18,0,-0.1243131,1.178946,2.957096,-0.1243131,1.128946,2.957096,0,0,0,null,null,
315,temporal,True,False,ao-congruent,0,0,-45.3373,slide_large_wood (UnityEngine.GameObject),slide_large_wood (UnityEngine.GameObject),1.711362,null,null,0.17,1,-0.06269792,1.19495,2.94597,-0.06269792,1.14595,2.94597,-2.172399,1.24948,1.809359,null,null,
316,temporal,True,False,ao-congruent,0,0,-12.33927,slide_large_wood (UnityEngine.GameObject),slide_large_wood (UnityEngine.GameObject),1.7329377,null,null,0.17,1,-0.06657415,1.195447,2.937581,-0.06657415,1.146447,2.937581,-0.7225238,0.9748887,2.78197,null,null,
317,temporal,True,False,ao-incongruent,0,0,-0.3748225,slide_large_wood (UnityEngine.GameObject),impact_large_metal (UnityEngine.GameObject),1.7557461,null,null,0.175,1,-0.07048901,1.196627,2.934294,-0.07048901,1.146627,2.934294,-0.0878621,0.8498387,2.907262,null,null,
318,temporal,True,False,ao-incongruent,0,0,-0.6872803,impact_large_metal (UnityEngine.GameObject),slide_large_wood (UnityEngine.GameObject),1.4771834,null,null,0.18,1,-0.06958131,1.194864,2.934047,-0.06958131,1.145864,2.934047,-0.104454,0.8635638,2.901528,null,null,
319,temporal,True,False,ao-congruent,0,0,-0.774302,slide_large_wood (UnityEngine.GameObject),slide_large_wood (UnityEngine.GameObject),1.3764209,null,null,0.175,1,-0.07102023,1.195832,2.930799,-0.07102023,1.146832,2.930799,-0.1101499,0.8865725,2.894009,null,null,
320,temporal,True,False,ao-congruent,0,0,-0.8216294,impact_large_wood (UnityEngine.GameObject),impact_large_wood (UnityEngine.GameObject),1.5659065,null,null,0.175,1,-0.07137417,1.196478,2.930809,-0.07137417,1.146478,2.930809,-0.1125524,0.8997124,2.889795,null,null,
321,temporal,True,False,ao-congruent,0,0,-0.8139727,impact_large_metal (UnityEngine.GameObject),impact_large_metal (UnityEngine.GameObject),1.6089999,null,null,0.18,1,-0.07050601,1.196577,2.929911,-0.07050601,1.146577,2.929911,-0.1120621,0.8854402,2.894171,null,null,
322,temporal,True,False,ao-congruent,0,0,-0.8704314,slide_large_wood (UnityEngine.GameObject),slide_large_wood (UnityEngine.GameObject),1.4100003,null,null,0.18,1,-0.07000093,1.195961,2.928653,-0.07000093,1.146961,2.928653,-0.114192,0.9013411,2.889146,null,null,
323,temporal,True,False,ao-incongruent,0,0,-0.8908735,impact_large_metal (UnityEngine.GameObject),slide_large_wood (UnityEngine.GameObject),1.4901448,null,null,0.17,1,-0.0693082,1.195576,2.930085,-0.0693082,1.146576,2.930085,-0.1149739,0.8904122,2.892388,null,null,
324,temporal,True,False,ao-congruent,0,0,-0.7129927,impact_large_metal (UnityEngine.GameObject),impact_large_metal (UnityEngine.GameObject),1.5426702,null,null,0.175,1,-0.06915158,1.197528,2.927762,-0.06915158,1.147528,2.927762,-0.1044128,0.9043991,2.889144,null,null,
325,temporal,True,False,ao-congruent,0,0,-0.7548515,slide_large_wood (UnityEngine.GameObject),slide_large_wood (UnityEngine.GameObject),1.5100727,null,null,0.18,1,-0.06958722,1.197074,2.927278,-0.06958722,1.148074,2.927278,-0.1021661,0.9835311,2.865353,null,null,
326,temporal,True,False,ao-congruent,0,0,-0.382573,slide_large_metal (UnityEngine.GameObject),slide_large_metal (UnityEngine.GameObject),1.9653749,null,null,0.175,1,-0.07080668,1.197621,2.926206,-0.07080668,1.148621,2.926206,-0.08147538,0.943913,2.87933,null,null,
327,temporal,True,False,ao-incongruent,0,0,-0.343781,impact_large_metal (UnityEngine.GameObject),slide_large_wood (UnityEngine.GameObject),1.3979791,null,null,0.175,1,-0.07063915,1.197779,2.92534,-0.07063915,1.148779,2.92534,-0.0793722,0.9363207,2.881832,null,null,
328,temporal,True,False,ao-incongruent,0,0,-0.3679734,slide_large_wood (UnityEngine.GameObject),impact_large_metal (UnityEngine.GameObject),1.6772907,null,null,0.17,1,-0.07092572,1.199062,2.924646,-0.07092572,1.149063,2.924646,-0.08129539,0.9423215,2.87983,null,null,
329,temporal,True,False,ao-incongruent,0,0,-0.3906707,impact_large_metal (UnityEngine.GameObject),slide_large_wood (UnityEngine.GameObject),1.4312564,null,null,0.17,1,-0.07080093,1.199048,2.922915,-0.07080093,1.150048,2.922915,-0.08580717,0.9258496,2.884399,null,null,
330,temporal,True,False,ao-congruent,0,0,-0.3409232,slide_large_metal (UnityEngine.GameObject),slide_large_metal (UnityEngine.GameObject),1.5555716,null,null,0.17,1,-0.07030966,1.199464,2.921025,-0.07030966,1.150464,2.921025,-0.08139203,0.9333999,2.882527,null,null,
331,temporal,True,False,ao-incongruent,0,0,-0.4776538,impact_large_metal (UnityEngine.GameObject),slide_large_wood (UnityEngine.GameObject),1.3422805,null,null,0.175,1,-0.07191743,1.199477,2.921691,-0.07191743,1.150477,2.921691,-0.09131799,0.9449316,2.878089,null,null,
332,temporal,True,False,ao-congruent,0,0,-0.315279,impact_large_wood (UnityEngine.GameObject),impact_large_wood (UnityEngine.GameObject),2.4870875,null,null,0.18,1,-0.07257935,1.201421,2.919883,-0.07257935,1.151421,2.919883,-0.08259612,0.9289747,2.883755,null,null,
333,temporal,True,False,ao-congruent,0,0,4.968618,slide_large_metal (UnityEngine.GameObject),slide_large_metal (UnityEngine.GameObject),1.5537958,null,null,0.175,1,-0.0809387,1.19562,2.917154,-0.0809387,1.14662,2.917154,0.1883431,0.9227023,2.875637,null,null,
334,temporal,True,False,ao-congruent,0,0,-1.365014,impact_large_wood (UnityEngine.GameObject),impact_large_wood (UnityEngine.GameObject),1.5328961,null,null,0.175,1,-0.07580614,1.196096,2.90976,-0.07580614,1.146096,2.90976,-0.1481024,0.9265602,2.878285,null,null,
335,temporal,True,False,ao-congruent,0,0,8.266931,impact_large_metal (UnityEngine.GameObject),impact_large_metal (UnityEngine.GameObject),2.00907,null,null,0.175,1,-0.0848359,1.199064,2.927554,-0.0848359,1.149064,2.927554,0.3633042,0.900847,2.865702,null,null,
336,temporal,True,False,ao-incongruent,0,0,68.41816,slide_large_wood (UnityEngine.GameObject),impact_large_metal (UnityEngine.GameObject),3.8976717,null,null,0.17,0,-0.06787343,1.199277,2.904639,-0.06787343,1.149277,2.904639,0,0,0,null,null,
337,temporal,True,False,ao-congruent,0,0,-3.80524,impact_large_wood (UnityEngine.GameObject),impact_large_wood (UnityEngine.GameObject),1.6817699,null,null,0.18,1,-0.06681158,1.200613,2.904092,-0.06681158,1.150614,2.904092,-0.2719906,0.9088839,2.871917,null,null,
338,temporal,True,False,ao-incongruent,0,0,-3.385528,slide_large_wood (UnityEngine.GameObject),impact_large_metal (UnityEngine.GameObject),1.7334534,null,null,0.17,1,-0.06610663,1.201159,2.903723,-0.06610663,1.151159,2.903723,-0.2486348,0.9100878,2.873764,null,null,
339,temporal,True,False,ao-incongruent,0,0,-3.304286,slide_large_metal (UnityEngine.GameObject),impact_large_wood (UnityEngine.GameObject),1.9101214,null,null,0.17,1,-0.06663591,1.20221,2.901479,-0.06663591,1.15221,2.901479,-0.2446704,0.9175002,2.871891,null,null,
340,temporal,True,False,ao-incongruent,0,0,7.041747,slide_large_wood (UnityEngine.GameObject),impact_large_metal (UnityEngine.GameObject),1.6754702,null,null,0.17,1,-0.08083333,1.201982,2.918064,-0.08083333,1.151982,2.918064,0.3015436,0.8876988,2.875537,null,null,
341,temporal,True,False,ao-incongruent,0,0,5.37939,impact_large_metal (UnityEngine.GameObject),slide_large_wood (UnityEngine.GameObject),1.473683,null,null,0.175,1,-0.08056509,1.20124,2.915371,-0.08056509,1.15224,2.915371,0.2120877,0.8789991,2.886646,null,null,
342,temporal,True,False,ao-incongruent,0,0,4.295323,slide_large_wood (UnityEngine.GameObject),impact_large_metal (UnityEngine.GameObject),2.0110348,null,null,0.175,1,-0.00348914,1.197487,2.954757,-0.00348914,1.147487,2.954757,0.2134018,1.203917,2.779609,null,null,
343,temporal,True,False,ao-congruent,0,0,-2.36604,slide_large_metal (UnityEngine.GameObject),slide_large_metal (UnityEngine.GameObject),1.6777783,null,null,0.17,1,-0.00496231,1.19058,2.981592,-0.00496231,1.14158,2.981592,-0.1126674,1.174613,2.804819,null,null,
344,temporal,True,False,ao-incongruent,0,0,-0.4889896,impact_large_metal (UnityEngine.GameObject),slide_large_wood (UnityEngine.GameObject),1.5113046,null,null,0.18,1,0.004202205,1.199574,2.988767,0.004202205,1.150574,2.988767,-0.006972802,0.8303007,2.920848,null,null,
345,temporal,True,False,ao-incongruent,0,0,-1.153349,slide_large_wood (UnityEngine.GameObject),impact_large_metal (UnityEngine.GameObject),1.6563172,null,null,0.175,1,0.00558571,1.205834,2.973975,0.00558571,1.155834,2.973975,-0.0548499,0.8127809,2.921629,null,null,
346,temporal,True,False,ao-congruent,0,0,-1.462997,slide_large_metal (UnityEngine.GameObject),slide_large_metal (UnityEngine.GameObject),1.9909519,null,null,0.175,1,0.005474091,1.203131,2.976585,0.005474091,1.154131,2.976585,-0.0723321,0.8076227,2.921539,null,null,
347,temporal,True,False,ao-incongruent,0,0,-2.124583,slide_large_wood (UnityEngine.GameObject),impact_large_metal (UnityEngine.GameObject),1.7970431,null,null,0.175,1,0.006980545,1.203925,2.975797,0.006980545,1.153925,2.975797,-0.1091581,0.7515431,2.935064,null,null,
348,temporal,True,False,ao-incongruent,0,0,-2.210631,impact_large_metal (UnityEngine.GameObject),slide_large_wood (UnityEngine.GameObject),1.3674924,null,null,0.17,1,0.007885349,1.203124,2.97533,0.007885349,1.154124,2.97533,-0.1123537,0.7791345,2.926391,null,null,
349,temporal,True,False,ao-congruent,0,0,1.31745,impact_large_wood (UnityEngine.GameObject),impact_large_wood (UnityEngine.GameObject),2.0327596,null,null,0.175,1,0.006094765,1.205209,2.992799,0.006094765,1.155209,2.992799,0.07284077,0.8206882,2.917518,null,null,
350,temporal,True,False,ao-incongruent,0,0,-2.138448,slide_large_wood (UnityEngine.GameObject),impact_large_metal (UnityEngine.GameObject),1.7435389,null,null,0.175,1,0.01505268,1.203251,2.991117,0.01505268,1.153251,2.991117,-0.09654101,0.8853899,2.895656,null,null,
351,temporal,True,False,ao-incongruent,0,0,68.99688,slide_large_metal (UnityEngine.GameObject),impact_large_wood (UnityEngine.GameObject),3.8865219,null,null,0.175,0,-0.01082583,1.200609,2.996932,-0.01082583,1.150609,2.996932,0,0,0,null,null,
352,temporal,True,False,ao-incongruent,0,0,68.93365,slide_large_wood (UnityEngine.GameObject),impact_large_metal (UnityEngine.GameObject),3.8986274,null,null,0.17,0,-0.01622076,1.199721,2.984746,-0.01622076,1.149722,2.984746,0,0,0,null,null,
